$FLYS,1
$VAR,FIRMWARE_VER,v2024.12.30
$VAR,DEVICE_ID,0017003b3253501720373657
$VAR,SESSION_ID,b57a352d139f92b1bf76e794
$COL,BARO,time,pressure,temperature
$UNIT,BARO,s,Pa,deg C
$COL,HUM,time,humidity,temperature
$UNIT,HUM,s,percent,deg C
$COL,MAG,time,x,y,z,temperature
$UNIT,MAG,s,gauss,gauss,gauss,deg C
$COL,IMU,time,wx,wy,wz,ax,ay,az,temperature
$UNIT,IMU,s,deg/s,deg/s,deg/s,g,g,g,deg C
$COL,TIME,time,tow,week
$UNIT,TIME,s,s,
$COL,VBAT,time,voltage
$UNIT,VBAT,s,volt
$DATA
$IMU,40869.637,9.338,-22.705,-35.705,-0.10937,0.83105,0.14648,21.22
$IMU,40869.639,-10.803,-12.756,-11.962,-0.15283,1.02197,0.16992,21.22
$IMU,40869.641,-0.732,-5.432,-3.173,-0.15722,1.06689,0.15722,21.22
$IMU,40869.644,0.732,-2.075,2.319,-0.12158,1.06884,0.16064,21.22
$IMU,40869.646,-0.671,2.624,1.770,-0.09277,1.06542,0.15722,21.22
$IMU,40869.648,5.676,1.220,1.464,-0.06494,1.07031,0.16503,21.22
$IMU,40869.651,1.037,8.850,15.258,-0.03808,1.07128,0.16748,21.22
$IMU,40869.653,-3.845,16.418,28.259,-0.01806,1.06542,0.17871,21.91
$IMU,40869.655,3.234,3.112,9.033,0.00048,1.06445,0.18310,21.91
$IMU,40869.658,10.009,-9.582,-7.446,0.01171,1.06396,0.18847,21.91
$IMU,40869.660,8.972,-9.277,-6.286,0.01806,1.07714,0.18847,21.91
$IMU,40869.662,7.873,-8.789,-4.882,0.03222,1.08837,0.18652,21.91
$IMU,40869.665,6.591,-8.178,-3.295,0.03515,1.07812,0.18554,21.91
$IMU,40869.667,5.126,-7.568,-3.112,0.04931,1.11279,0.18798,21.91
$IMU,40869.669,3.601,-6.713,-2.075,0.07080,1.13720,0.18554,21.91
$IMU,40869.672,1.770,-5.676,-1.159,0.10009,1.14843,0.18505,21.92
$IMU,40869.674,-1.281,-4.089,0.427,0.11669,1.16357,0.18164,21.92
$IMU,40869.676,-8.972,-0.122,10.192,0.13574,1.17236,0.18554,21.92
$IMU,40869.679,-11.413,1.464,11.962,0.14111,1.17968,0.18554,21.92
$IMU,40869.681,-12.695,2.441,10.559,0.14453,1.18603,0.18359,21.92
$IMU,40869.683,-13.854,3.662,9.582,0.14648,1.19384,0.18017,21.92
$IMU,40869.686,-15.014,4.699,8.789,0.16601,1.19580,0.17871,21.92
$IMU,40869.688,-16.174,5.798,7.202,0.18115,1.20019,0.17431,21.92
$IMU,40869.690,-17.395,7.141,5.676,0.18408,1.20263,0.17480,21.93
$IMU,40869.693,-18.615,8.361,4.638,0.19140,1.19628,0.17333,21.93
$IMU,40869.695,-19.775,9.521,2.990,0.19189,1.19189,0.17333,21.93
$IMU,40869.697,-20.812,10.986,1.037,0.19873,1.19287,0.17431,21.93
$IMU,40869.700,-21.850,12.329,-0.366,0.21484,1.19189,0.17333,21.93
$IMU,40869.702,-22.888,13.427,-2.136,0.24121,1.20849,0.17382,21.93
$IMU,40869.705,-24.047,15.136,-4.333,0.26220,1.22607,0.17236,21.93
$IMU,40869.707,-25.207,16.845,-6.103,0.27978,1.22167,0.16943,21.93
$IMU,40869.709,-26.428,18.310,-8.117,0.25097,1.22412,0.17041,21.93
$IMU,40869.712,-27.954,18.920,-10.192,0.05273,1.28759,0.16015,21.93
$IMU,40869.714,-29.602,18.737,-11.352,-0.07617,1.27441,0.15185,21.93
$IMU,40869.716,-30.761,18.737,-12.939,-0.02734,1.23876,0.14453,21.93
$IMU,40869.719,-32.226,18.493,-14.160,0.01269,1.23339,0.15185,21.93
$IMU,40869.721,-33.508,18.859,-14.587,0.05371,1.19384,0.16845,21.93
$IMU,40869.723,-34.790,19.226,-16.052,0.07226,1.16357,0.17919,21.93
$IMU,40869.726,-35.766,19.409,-17.517,0.06982,1.13671,0.18652,21.93
$IMU,40869.728,-36.682,20.019,-18.371,0.05322,1.10839,0.19189,21.98
$IMU,40869.730,-37.414,19.897,-20.141,0.02490,1.10058,0.19677,21.98
$IMU,40869.733,-38.208,19.775,-22.277,-0.01757,1.09912,0.20068,21.98
$IMU,40869.735,-38.879,19.470,-23.742,-0.04101,1.08105,0.20410,21.98
$IMU,40869.737,-39.489,18.676,-25.451,-0.06689,1.06250,0.21484,21.98
$IMU,40869.740,-39.978,17.883,-27.465,-0.07177,1.06396,0.21582,21.98
$IMU,40869.742,-40.527,17.211,-28.747,-0.06347,1.04736,0.21777,21.98
$IMU,40869.744,-40.954,16.540,-29.907,-0.05468,1.03710,0.21533,21.98
$IMU,40869.747,-41.259,15.930,-31.311,-0.05078,1.02490,0.21972,21.94
$IMU,40869.749,-41.564,15.441,-32.104,-0.05517,1.00878,0.22216,21.94
$IMU,40869.751,-41.687,14.709,-32.531,-0.07568,0.99560,0.22509,21.94
$IMU,40869.754,-41.687,13.916,-33.325,-0.09521,0.98437,0.22509,21.94
$IMU,40869.756,-41.748,13.000,-33.935,-0.10986,0.96972,0.22705,21.94
$IMU,40869.758,-41.503,11.657,-33.996,-0.12548,0.95117,0.23242,21.94
$IMU,40869.761,-41.381,10.742,-34.179,-0.13085,0.94042,0.23388,21.94
$IMU,40869.763,-41.320,9.826,-34.423,-0.13183,0.92333,0.23828,21.94
$IMU,40869.766,-41.137,8.728,-33.996,-0.12988,0.91552,0.24218,21.94
$IMU,40869.768,-40.771,7.568,-33.508,-0.13427,0.90136,0.24511,21.94
$IMU,40869.770,-40.466,6.591,-33.142,-0.13818,0.89599,0.24609,21.94
$IMU,40869.773,-40.100,5.615,-32.226,-0.13867,0.89111,0.25537,21.94
$IMU,40869.775,-39.611,4.577,-31.127,-0.14550,0.89013,0.25146,21.94
$IMU,40869.777,-39.123,3.540,-30.090,-0.14941,0.89257,0.24902,21.94
$IMU,40869.780,-38.513,2.624,-28.625,-0.14453,0.89306,0.24511,21.94
$IMU,40869.782,-37.963,1.464,-27.038,-0.14404,0.89404,0.24414,21.94
$IMU,40869.784,-37.536,0.610,-25.451,-0.14355,0.89501,0.23486,21.93
$IMU,40869.787,-36.804,-0.366,-23.681,-0.14404,0.89453,0.22802,21.93
$IMU,40869.789,-36.132,-1.342,-21.545,-0.14941,0.88916,0.22021,21.93
$IMU,40869.791,-35.583,-2.319,-19.531,-0.15478,0.88769,0.21240,21.93
$IMU,40869.794,-34.851,-3.295,-17.578,-0.16455,0.88134,0.20996,21.93
$IMU,40869.796,-34.179,-4.333,-15.380,-0.16503,0.87402,0.20800,21.93
$IMU,40869.798,-33.325,-5.554,-13.305,-0.16552,0.86621,0.20898,21.93
$IMU,40869.801,-32.531,-6.408,-11.169,-0.16113,0.86230,0.21044,21.93
$IMU,40869.803,-31.738,-7.324,-9.033,-0.14648,0.85644,0.21972,21.95
$IMU,40869.805,-31.005,-8.239,-6.896,-0.13623,0.85449,0.22949,21.95
$IMU,40869.808,-30.090,-8.972,-4.821,-0.12255,0.85742,0.24169,21.95
$IMU,40869.810,-29.479,-9.460,-2.624,-0.11328,0.85888,0.24707,21.95
$IMU,40869.812,-28.686,-10.070,-0.549,-0.10351,0.86230,0.25585,21.95
$IMU,40869.815,-27.893,-10.559,1.342,-0.10498,0.86523,0.25927,21.95
$IMU,40869.817,-27.160,-11.047,3.234,-0.10449,0.86376,0.26074,21.95
$IMU,40869.819,-26.550,-11.474,4.943,-0.10693,0.86621,0.25830,21.95
$IMU,40869.822,-25.817,-11.840,6.530,-0.11767,0.86132,0.25732,21.96
$IMU,40869.824,-25.024,-12.817,7.873,-0.12304,0.85888,0.25488,21.96
$IMU,40869.826,-24.291,-13.366,9.216,-0.12890,0.85546,0.25488,21.96
$IMU,40869.829,-23.559,-14.038,10.253,-0.13574,0.85351,0.25341,21.96
$IMU,40869.831,-22.888,-14.831,11.230,-0.14111,0.85302,0.25732,21.96
$IMU,40869.834,-22.216,-15.563,12.084,-0.14453,0.85498,0.26074,21.96
$IMU,40869.836,-21.606,-16.113,12.878,-0.13818,0.85742,0.26708,21.96
$IMU,40869.838,-21.118,-16.784,13.427,-0.13574,0.86328,0.28222,21.96
$IMU,40869.841,-20.690,-17.150,14.160,-0.12500,0.86425,0.29296,22.02
$IMU,40869.843,-19.958,-17.700,14.892,-0.11865,0.86572,0.30078,22.02
$IMU,40869.845,-19.470,-18.371,15.502,-0.11230,0.86035,0.31005,22.02
$IMU,40869.848,-18.859,-18.676,16.052,-0.10791,0.86083,0.31445,22.02
$IMU,40869.850,-18.249,-19.042,16.662,-0.10449,0.86083,0.31982,22.02
$IMU,40869.852,-17.578,-19.470,17.211,-0.10742,0.85888,0.31835,22.02
$IMU,40869.855,-17.028,-19.714,17.700,-0.10498,0.86328,0.31396,22.02
$IMU,40869.857,-16.418,-19.836,18.249,-0.10205,0.86279,0.30517,22.02
$IMU,40869.859,-15.747,-20.141,18.554,-0.09570,0.86621,0.29736,21.95
$IMU,40869.862,-15.075,-20.324,18.920,-0.08691,0.86767,0.28857,21.95
$IMU,40869.864,-14.160,-20.690,19.287,-0.07861,0.86865,0.27832,21.95
$IMU,40869.866,-13.427,-20.751,19.653,-0.06835,0.87255,0.26611,21.95
$IMU,40869.869,-12.695,-20.935,20.019,-0.05566,0.87744,0.25976,21.95
$IMU,40869.871,-11.962,-20.812,20.324,-0.04541,0.88574,0.25390,21.95
$IMU,40869.873,-11.352,-20.629,20.690,-0.02978,0.89062,0.25439,21.95
$IMU,40869.876,-10.559,-20.324,21.057,-0.01464,0.89404,0.25683,21.95
$BARO,40869.877,86906.84,22.70
$IMU,40869.878,-9.765,-20.019,21.423,0.00244,0.89843,0.25830,21.98
$IMU,40869.880,-9.155,-19.592,21.850,0.01123,0.90087,0.26123,21.98
$MAG,40869.883,-0.258,-0.436,-0.568,-8.1
$IMU,40869.883,-8.422,-19.104,22.277,0.02441,0.90527,0.26855,21.98
$IMU,40869.885,-7.751,-18.554,22.766,0.03417,0.91064,0.26855,21.98
$IMU,40869.887,-7.019,-18.005,23.193,0.03857,0.91796,0.26953,21.98
$IMU,40869.890,-6.591,-17.089,23.681,0.04541,0.91650,0.27050,21.98
$IMU,40869.892,-5.798,-16.540,24.047,0.04589,0.92236,0.26806,21.98
$MAG,40869.893,-0.274,-0.463,-0.610,20.5
$IMU,40869.895,-5.126,-16.113,24.414,0.04394,0.92089,0.26269,21.98
$IMU,40869.897,-4.516,-15.502,24.719,0.04150,0.92382,0.26367,22.03
$IMU,40869.899,-4.028,-14.953,24.963,0.03710,0.92626,0.25878,22.03
$IMU,40869.902,-3.540,-14.343,25.207,0.02929,0.93066,0.25927,22.03
$MAG,40869.903,-0.274,-0.462,-0.609,20.5
$IMU,40869.904,-3.051,-13.854,25.390,0.02587,0.93359,0.25878,22.03
$IMU,40869.906,-2.563,-13.671,25.451,0.02880,0.94189,0.25976,22.03
$IMU,40869.909,-2.197,-13.427,25.512,0.02978,0.94970,0.26220,22.03
$IMU,40869.911,-1.892,-13.061,25.634,0.03320,0.95556,0.26806,22.03
$IMU,40869.913,-1.586,-12.756,25.634,0.03271,0.96044,0.27294,22.03
$MAG,40869.913,-0.280,-0.451,-0.604,20.5
$IMU,40869.916,-1.403,-12.390,25.573,0.03076,0.96582,0.27490,21.99
$IMU,40869.918,-1.220,-12.023,25.695,0.02441,0.97070,0.27929,21.99
$IMU,40869.920,-1.037,-11.840,25.512,0.00683,0.97705,0.28027,21.99
$HUM,40869.922,41.5,22.9
$MAG,40869.923,-0.301,-0.460,-0.609,20.7
$IMU,40869.923,-0.854,-11.840,25.268,-0.01416,0.98242,0.27832,21.99
$IMU,40869.925,-0.854,-12.084,25.024,-0.03759,0.98242,0.28173,21.99
$IMU,40869.927,-0.854,-12.145,24.597,-0.05761,0.98046,0.27978,21.99
$IMU,40869.930,-0.854,-12.634,23.986,-0.07373,0.97705,0.27880,21.99
$IMU,40869.932,-0.793,-13.305,23.437,-0.08642,0.97607,0.28027,21.99
$MAG,40869.933,-0.285,-0.445,-0.606,20.7
$IMU,40869.934,-0.854,-13.793,22.827,-0.09179,0.97558,0.28417,21.99
$IMU,40869.937,-0.976,-14.526,22.155,-0.09570,0.97119,0.28857,21.99
$IMU,40869.939,-1.037,-15.380,21.423,-0.09716,0.96826,0.29199,21.99
$IMU,40869.941,-1.098,-15.930,20.812,-0.09570,0.96386,0.29443,21.99
$MAG,40869.943,-0.292,-0.451,-0.613,20.8
$IMU,40869.944,-1.281,-16.662,20.202,-0.09472,0.96093,0.30029,21.99
$IMU,40869.946,-1.281,-17.456,19.592,-0.09228,0.96240,0.30322,21.99
$IMU,40869.948,-1.403,-18.066,19.287,-0.08886,0.96240,0.30566,21.99
$IMU,40869.951,-1.525,-18.920,19.042,-0.08642,0.96533,0.30859,21.99
$MAG,40869.953,-0.297,-0.462,-0.613,20.7
$IMU,40869.953,-1.525,-19.775,18.920,-0.08691,0.96923,0.30615,21.99
$IMU,40869.955,-1.647,-20.568,18.920,-0.08447,0.97851,0.29833,21.99
$IMU,40869.958,-1.831,-21.179,19.042,-0.07666,0.97998,0.29394,21.99
$IMU,40869.960,-2.136,-21.606,19.287,-0.07617,0.98632,0.28808,21.99
$IMU,40869.963,-2.136,-22.583,19.775,-0.06787,0.98535,0.28076,21.99
$MAG,40869.964,-0.297,-0.460,-0.609,20.9
$IMU,40869.965,-2.258,-23.193,20.324,-0.06738,0.98925,0.27441,21.99
$IMU,40869.967,-2.380,-24.108,20.874,-0.06298,0.99316,0.26757,21.99
$IMU,40869.970,-2.563,-24.841,21.606,-0.05859,0.99560,0.26269,21.99
$IMU,40869.972,-2.807,-25.451,22.460,-0.04980,1.00439,0.26708,22.01
$MAG,40869.974,-0.303,-0.462,-0.610,20.7
$IMU,40869.974,-3.234,-25.817,23.315,-0.03906,1.00732,0.26904,22.01
$IMU,40869.977,-3.601,-26.306,24.353,-0.02832,1.01269,0.27832,22.01
$BARO,40869.978,86899.48,22.70
$IMU,40869.979,-3.906,-26.794,25.451,-0.01220,1.02001,0.28222,22.01
$IMU,40869.981,-4.150,-27.221,26.672,0.00195,1.02587,0.28857,22.01
$MAG,40869.984,-0.301,-0.463,-0.610,20.7
$IMU,40869.984,-4.455,-27.465,27.954,0.01855,1.03027,0.28906,22.01
$IMU,40869.986,-4.882,-27.465,29.357,0.03125,1.03710,0.29345,22.01
$IMU,40869.988,-5.310,-27.282,30.517,0.05126,1.04101,0.29589,22.01
$IMU,40869.991,-5.737,-27.221,31.799,0.06347,1.04589,0.29052,22.00
$IMU,40869.993,-6.103,-27.221,33.020,0.07666,1.05029,0.28417,22.00
$MAG,40869.994,-0.310,-0.459,-0.609,20.8
$IMU,40869.995,-6.652,-26.855,34.179,0.08740,1.04833,0.27148,22.00
$IMU,40869.998,-7.019,-26.550,35.217,0.09619,1.05273,0.26904,22.00
$IMU,40870.000,-7.446,-26.184,36.010,0.10253,1.05126,0.25732,22.00
$IMU,40870.002,-7.934,-25.939,36.682,0.09814,1.05029,0.25341,22.00
$MAG,40870.004,-0.321,-0.462,-0.610,20.9
$IMU,40870.005,-8.239,-25.573,37.292,0.10449,1.04785,0.25146,22.00
$IMU,40870.007,-8.544,-25.390,37.658,0.10546,1.04833,0.24755,22.00
$IMU,40870.009,-8.972,-25.024,37.902,0.11376,1.04736,0.25341,21.98
$IMU,40870.012,-9.399,-24.841,38.085,0.11914,1.05615,0.26318,21.98
$MAG,40870.014,-0.321,-0.453,-0.615,20.7
$IMU,40870.014,-9.887,-24.353,38.269,0.12939,1.05712,0.27441,21.98
$IMU,40870.016,-10.437,-23.742,38.330,0.13818,1.06494,0.28125,21.98
$IMU,40870.019,-10.986,-23.193,38.330,0.14990,1.06933,0.28955,21.98
$IMU,40870.021,-11.535,-22.399,38.269,0.15332,1.08105,0.29443,21.98
$MAG,40870.024,-0.325,-0.468,-0.612,20.9
$IMU,40870.024,-11.962,-21.972,38.146,0.16064,1.08740,0.30175,21.98
$IMU,40870.026,-12.512,-21.301,37.963,0.16406,1.09570,0.30273,21.98
$IMU,40870.028,-13.122,-20.812,37.719,0.16650,1.10595,0.30419,21.98
$IMU,40870.031,-13.671,-20.202,37.292,0.16308,1.11132,0.30322,21.98
$IMU,40870.033,-14.404,-19.653,36.682,0.15917,1.11474,0.30029,21.98
$MAG,40870.034,-0.322,-0.460,-0.613,20.7
$IMU,40870.035,-15.136,-19.165,35.949,0.15722,1.11230,0.29687,21.98
$IMU,40870.038,-15.747,-18.737,34.973,0.15185,1.10644,0.29443,21.98
$IMU,40870.040,-16.357,-18.371,33.874,0.15380,1.10205,0.29931,21.98
$IMU,40870.042,-16.784,-18.188,32.653,0.14990,1.09521,0.30175,21.98
$MAG,40870.044,-0.333,-0.460,-0.625,20.9
$IMU,40870.045,-17.456,-17.578,31.250,0.15380,1.08496,0.30957,21.98
$IMU,40870.047,-17.822,-17.517,29.724,0.15966,1.07910,0.31835,21.99
$IMU,40870.049,-18.310,-17.211,28.015,0.16162,1.07275,0.32958,21.99
$IMU,40870.052,-18.676,-16.845,26.184,0.17187,1.06982,0.34375,21.99
$MAG,40870.054,-0.333,-0.453,-0.621,20.9
$IMU,40870.054,-19.165,-16.601,24.414,0.17382,1.06494,0.35449,21.99
$IMU,40870.056,-19.531,-16.052,22.338,0.18066,1.05761,0.36376,21.99
$IMU,40870.059,-19.836,-15.747,20.324,0.18261,1.05078,0.36914,21.99
$IMU,40870.061,-20.202,-15.014,18.371,0.18164,1.04931,0.37353,21.99
$IMU,40870.063,-20.568,-14.465,16.174,0.17871,1.04785,0.37597,21.99
$MAG,40870.064,-0.333,-0.454,-0.618,20.8
$IMU,40870.066,-20.690,-14.465,14.160,0.17626,1.04296,0.37255,21.98
$IMU,40870.068,-20.874,-14.099,12.084,0.16699,1.03857,0.37060,21.98
$IMU,40870.070,-21.118,-13.671,9.887,0.15771,1.03662,0.36474,21.98
$IMU,40870.073,-21.484,-13.610,7.690,0.14843,1.03173,0.36230,21.98
$MAG,40870.074,-0.330,-0.457,-0.628,20.8
$IMU,40870.075,-21.606,-13.366,5.615,0.14697,1.03271,0.36181,21.98
$IMU,40870.077,-21.667,-13.305,3.601,0.14501,1.03320,0.36181,21.98
$BARO,40870.080,86908.45,22.71
$IMU,40870.080,-21.728,-13.610,1.647,0.14599,1.03222,0.36083,21.98
$IMU,40870.082,-21.972,-13.305,-0.244,0.15332,1.03125,0.36523,21.98
$IMU,40870.084,-22.033,-13.000,-2.014,0.16064,1.03466,0.36572,22.03
$MAG,40870.085,-0.337,-0.456,-0.627,20.9
$IMU,40870.087,-22.216,-12.878,-3.723,0.16748,1.03222,0.36621,22.03
$IMU,40870.089,-22.277,-12.573,-5.187,0.16699,1.03564,0.36962,22.03
$IMU,40870.092,-22.277,-12.268,-6.530,0.17041,1.03320,0.36816,22.03
$IMU,40870.094,-22.216,-12.390,-7.812,0.16699,1.03515,0.36962,22.03
$MAG,40870.095,-0.336,-0.447,-0.618,20.8
$IMU,40870.096,-22.277,-12.084,-8.972,0.16503,1.03417,0.36914,22.03
$IMU,40870.099,-22.521,-11.718,-10.192,0.16455,1.02929,0.36816,22.03
$IMU,40870.101,-22.705,-11.352,-11.230,0.17138,1.02392,0.37109,22.03
$IMU,40870.103,-22.644,-11.230,-12.145,0.17187,1.01464,0.36718,21.98
$MAG,40870.105,-0.340,-0.450,-0.627,20.8
$IMU,40870.106,-22.521,-11.169,-12.939,0.17822,1.01220,0.36376,21.98
$IMU,40870.108,-22.399,-10.803,-13.732,0.18652,1.00781,0.35888,21.98
$IMU,40870.110,-22.277,-10.437,-14.343,0.19580,1.00927,0.35839,21.98
$IMU,40870.113,-22.155,-10.009,-14.709,0.20068,1.00878,0.35595,21.98
$MAG,40870.115,-0.336,-0.448,-0.628,20.9
$IMU,40870.115,-22.094,-9.399,-15.014,0.21289,1.01318,0.34765,21.98
$IMU,40870.117,-21.972,-8.911,-15.319,0.21533,1.02197,0.34082,21.98
$IMU,40870.120,-21.789,-8.544,-15.380,0.21826,1.02441,0.33398,21.98
$IMU,40870.122,-21.667,-7.873,-15.380,0.21044,1.02929,0.32373,22.01
$IMU,40870.124,-21.484,-7.385,-15.380,0.20117,1.03515,0.31884,22.01
$MAG,40870.125,-0.340,-0.448,-0.628,20.9
$IMU,40870.127,-21.423,-6.958,-15.319,0.19042,1.03759,0.31396,22.01
$IMU,40870.129,-21.240,-6.713,-15.258,0.18017,1.04101,0.31250,22.01
$IMU,40870.131,-21.179,-6.408,-15.258,0.16601,1.04296,0.31396,22.01
$IMU,40870.134,-21.179,-6.286,-15.075,0.16259,1.04101,0.31787,22.01
$MAG,40870.135,-0.340,-0.448,-0.630,20.8
$IMU,40870.136,-21.118,-6.164,-14.831,0.16113,1.04199,0.32226,22.01
$IMU,40870.138,-20.996,-5.859,-14.648,0.16113,1.03906,0.32714,22.01
$IMU,40870.141,-20.996,-5.798,-14.343,0.16406,1.03857,0.33349,22.03
$IMU,40870.143,-20.996,-5.249,-13.854,0.16552,1.03320,0.33544,22.03
$MAG,40870.145,-0.333,-0.448,-0.642,20.8
$IMU,40870.145,-20.935,-5.065,-13.244,0.16601,1.04003,0.33886,22.03
$IMU,40870.148,-20.751,-5.065,-12.573,0.16308,1.04394,0.33837,22.03
$IMU,40870.150,-20.690,-4.882,-11.840,0.16259,1.04687,0.34130,22.03
$IMU,40870.153,-20.629,-4.699,-11.047,0.15039,1.04443,0.33935,22.03
$MAG,40870.155,-0.336,-0.444,-0.634,20.8
$IMU,40870.155,-20.690,-4.577,-10.253,0.14257,1.04492,0.33496,22.03
$IMU,40870.157,-20.690,-4.638,-9.338,0.13281,1.04052,0.33154,22.03
$IMU,40870.160,-20.568,-4.577,-8.605,0.12060,1.03906,0.32861,21.99
$IMU,40870.162,-20.446,-4.882,-7.934,0.10937,1.03564,0.32519,21.99
$IMU,40870.164,-20.324,-5.310,-7.263,0.09765,1.02539,0.32421,21.99
$MAG,40870.165,-0.336,-0.441,-0.636,20.8
$IMU,40870.167,-20.202,-5.615,-6.713,0.08300,1.02685,0.32763,21.99
$IMU,40870.169,-20.080,-6.042,-6.164,0.07226,1.02099,0.33447,21.99
$IMU,40870.171,-19.836,-6.774,-5.432,0.06152,1.01367,0.34912,21.99
$IMU,40870.174,-19.775,-7.202,-4.943,0.06152,1.01220,0.36181,21.99
$MAG,40870.175,-0.336,-0.447,-0.634,20.9
$IMU,40870.176,-19.897,-7.324,-4.943,0.07861,1.01123,0.35693,21.99
$IMU,40870.178,-19.897,-7.568,-4.943,0.08544,1.00146,0.35742,22.03
$IMU,40870.181,-19.836,-7.934,-4.516,0.07861,0.98876,0.36132,22.03
$BARO,40870.182,86907.21,22.71
$IMU,40870.183,-19.653,-8.483,-4.272,0.06787,0.98046,0.36621,22.03
$IMU,40870.185,-19.470,-8.911,-4.272,0.06250,0.97753,0.37744,22.03
$MAG,40870.185,-0.331,-0.433,-0.637,20.9
$IMU,40870.188,-19.470,-9.033,-4.333,0.06494,0.98974,0.37792,22.03
$IMU,40870.190,-19.348,-9.277,-4.455,0.06591,0.97949,0.37158,22.03
$IMU,40870.192,-19.226,-9.582,-4.455,0.06738,0.97265,0.36962,22.03
$MAG,40870.195,-0.330,-0.436,-0.639,20.8
$IMU,40870.195,-18.981,-9.887,-4.577,0.06689,0.96191,0.37158,22.03
$IMU,40870.197,-19.042,-9.826,-4.943,0.06640,0.96289,0.36865,22.00
$IMU,40870.199,-18.981,-9.948,-5.432,0.06591,0.94384,0.35351,22.00
$IMU,40870.202,-18.737,-10.009,-6.103,0.06005,0.93896,0.35351,22.00
$IMU,40870.204,-18.371,-10.253,-6.774,0.05322,0.93554,0.33593,22.00
$MAG,40870.205,-0.336,-0.439,-0.643,20.9
$IMU,40870.206,-17.944,-10.498,-7.690,0.05419,0.92041,0.34130,22.00
$IMU,40870.209,-17.517,-10.559,-8.544,0.05664,0.91992,0.34375,22.00
$IMU,40870.211,-17.211,-10.742,-9.338,0.05908,0.92187,0.34765,22.00
$IMU,40870.214,-16.906,-10.559,-10.192,0.07080,0.92187,0.34765,22.00
$MAG,40870.216,-0.333,-0.433,-0.645,20.8
$IMU,40870.216,-16.479,-10.498,-11.108,0.07617,0.91552,0.34619,22.02
$IMU,40870.218,-16.052,-10.375,-11.779,0.08398,0.91552,0.35058,22.02
$IMU,40870.221,-15.625,-10.070,-12.390,0.08789,0.91064,0.35205,22.02
$IMU,40870.223,-15.075,-9.826,-13.061,0.09179,0.90722,0.35107,22.02
$IMU,40870.225,-14.648,-9.460,-13.610,0.08544,0.91406,0.34716,22.02
$MAG,40870.226,-0.339,-0.430,-0.646,20.9
$IMU,40870.228,-14.221,-9.094,-14.099,0.07373,0.92724,0.35302,22.02
$IMU,40870.230,-13.977,-8.911,-14.526,0.03662,0.96777,0.36816,22.02
$IMU,40870.232,-13.916,-8.850,-15.014,0.00830,0.99121,0.36767,22.02
$IMU,40870.235,-13.732,-8.850,-15.380,-0.00830,0.98925,0.36132,22.03
$MAG,40870.236,-0.339,-0.433,-0.651,20.9
$IMU,40870.237,-13.305,-8.544,-15.686,0.02294,0.94531,0.33789,22.03
$IMU,40870.239,-12.023,-8.544,-15.502,0.04101,0.92773,0.35791,22.03
$IMU,40870.242,-11.108,-8.666,-14.953,-0.01025,0.99853,0.43310,22.03
$IMU,40870.244,-11.291,-8.300,-14.770,-0.05371,1.06445,0.44726,22.03
$MAG,40870.246,-0.330,-0.430,-0.640,20.9
$IMU,40870.246,-11.779,-7.568,-14.648,-0.01025,1.01074,0.38525,22.03
$IMU,40870.249,-11.108,-7.751,-13.671,0.02343,0.94140,0.37744,22.03
$IMU,40870.251,-9.582,-8.361,-12.207,0.00585,0.97998,0.43701,22.03
$IMU,40870.253,-9.216,-8.300,-11.596,-0.01660,1.03125,0.46044,22.01
$MAG,40870.256,-0.330,-0.430,-0.648,20.9
$IMU,40870.256,-9.643,-7.202,-11.413,0.01660,1.03271,0.45898,22.01
$IMU,40870.258,-9.643,-6.408,-10.559,0.04980,1.03906,0.43164,22.01
$IMU,40870.260,-9.643,-6.042,-9.033,0.04687,1.06835,0.41503,22.01
$IMU,40870.263,-9.887,-5.310,-7.324,0.03466,1.07226,0.40332,22.01
$IMU,40870.265,-10.192,-4.028,-5.920,0.03466,1.06298,0.38378,22.01
$MAG,40870.266,-0.337,-0.433,-0.651,20.9
$IMU,40870.267,-10.314,-2.563,-4.577,0.03808,1.07324,0.36962,22.01
$IMU,40870.270,-10.314,-1.220,-3.173,0.03564,1.06884,0.36279,22.01
$IMU,40870.272,-10.131,0.000,-1.831,0.02832,1.05175,0.37646,22.02
$IMU,40870.274,-9.887,0.671,-0.549,0.01367,1.05224,0.40429,22.02
$IMU,40870.277,-10.009,1.525,0.427,0.01123,1.06103,0.41503,22.02
$MAG,40870.276,-0.342,-0.426,-0.645,20.9
$IMU,40870.279,-10.314,2.868,1.220,0.01416,1.05322,0.42187,22.02
$IMU,40870.282,-10.498,4.089,2.197,0.02343,1.04541,0.42285,22.02
$BARO,40870.283,86909.79,22.71
$IMU,40870.284,-10.925,5.126,3.051,0.01708,1.03417,0.42968,22.02
$MAG,40870.286,-0.339,-0.430,-0.639,20.8
$IMU,40870.286,-11.108,6.042,3.906,0.00634,1.01806,0.42773,22.02
$IMU,40870.289,-11.352,6.713,4.516,-0.00781,1.00244,0.42285,22.02
$IMU,40870.291,-11.535,7.080,4.577,-0.02343,1.00048,0.42236,22.02
$IMU,40870.293,-11.535,7.507,5.004,-0.04150,1.02539,0.42138,22.02
$MAG,40870.296,-0.330,-0.430,-0.648,20.9
$IMU,40870.296,-11.596,7.812,5.615,-0.04541,1.00976,0.42089,22.02
$IMU,40870.298,-11.901,8.056,5.798,-0.04882,1.01074,0.42333,22.02
$IMU,40870.300,-12.268,8.117,5.920,-0.05175,1.00781,0.42089,22.02
$IMU,40870.303,-12.695,8.178,5.798,-0.04833,1.00390,0.42333,22.02
$IMU,40870.305,-13.000,8.239,5.798,-0.05078,0.99560,0.42187,22.02
$MAG,40870.306,-0.328,-0.424,-0.651,20.9
$IMU,40870.307,-13.366,8.178,5.676,-0.05615,0.98876,0.42773,22.02
$IMU,40870.310,-13.854,8.239,5.554,-0.06054,0.97998,0.42529,22.06
$IMU,40870.312,-14.282,8.300,5.432,-0.06640,0.98095,0.42675,22.06
$IMU,40870.314,-14.526,8.117,5.310,-0.06835,0.97167,0.42529,22.06
$MAG,40870.316,-0.340,-0.429,-0.651,20.9
$IMU,40870.317,-14.831,7.934,5.187,-0.07568,0.96679,0.42871,22.06
$IMU,40870.319,-15.197,7.690,5.004,-0.08496,0.96923,0.44042,22.06
$IMU,40870.321,-15.625,7.385,4.699,-0.08691,0.96289,0.43701,22.06
$IMU,40870.324,-15.991,7.263,4.394,-0.07666,0.95996,0.43261,22.06
$IMU,40870.326,-16.296,6.713,4.272,-0.07763,0.95800,0.44042,22.06
$MAG,40870.326,-0.337,-0.426,-0.660,20.9
$IMU,40870.328,-16.601,6.286,3.967,-0.08105,0.95605,0.42919,22.05
$IMU,40870.331,-16.906,5.798,3.723,-0.09033,0.95166,0.42724,22.05
$IMU,40870.333,-17.089,5.004,3.479,-0.10156,0.94873,0.42822,22.05
$IMU,40870.335,-17.272,4.211,3.112,-0.10546,0.94433,0.41894,22.05
$MAG,40870.337,-0.333,-0.418,-0.657,20.9
$IMU,40870.338,-17.211,3.173,2.990,-0.11181,0.93212,0.41406,22.05
$IMU,40870.340,-17.028,2.075,2.868,-0.11425,0.92675,0.41308,22.05
$IMU,40870.343,-16.784,0.854,3.051,-0.11328,0.91650,0.41162,22.05
$IMU,40870.345,-16.357,-0.244,3.540,-0.11230,0.90576,0.41796,22.05
$MAG,40870.347,-0.331,-0.423,-0.663,20.9
$IMU,40870.347,-15.869,-1.586,4.394,-0.10644,0.90283,0.41748,22.02
$IMU,40870.350,-15.258,-2.807,5.371,-0.10400,0.90332,0.40917,22.02
$IMU,40870.352,-14.587,-3.906,6.408,-0.10009,0.89892,0.40380,22.02
$IMU,40870.354,-13.671,-5.615,7.507,-0.10156,0.88720,0.39355,22.02
$MAG,40870.357,-0.330,-0.424,-0.658,20.9
$IMU,40870.357,-12.451,-6.896,8.361,-0.09570,0.87744,0.38574,22.02
$IMU,40870.359,-11.108,-8.056,8.911,-0.08300,0.86181,0.38232,22.02
$IMU,40870.361,-9.826,-9.460,9.277,-0.06445,0.83886,0.37060,22.02
$IMU,40870.364,-8.300,-10.681,9.765,-0.04248,0.81933,0.36181,22.02
$IMU,40870.366,-6.652,-11.596,10.009,-0.01708,0.79541,0.35595,22.03
$MAG,40870.367,-0.342,-0.421,-0.655,20.9
$IMU,40870.368,-4.821,-12.817,10.131,0.00146,0.77783,0.35742,22.03
$IMU,40870.371,-2.990,-13.549,10.253,0.01318,0.76611,0.36132,22.03
$IMU,40870.373,-1.037,-14.282,10.070,0.01464,0.75732,0.36816,22.03
$IMU,40870.375,0.976,-15.563,10.009,0.01513,0.74951,0.38232,22.03
$IMU,40870.378,3.112,-16.540,9.887,0.01757,0.73779,0.40576,22.03
$MAG,40870.377,-0.330,-0.423,-0.658,20.9
$IMU,40870.380,5.310,-17.333,9.582,0.03906,0.74072,0.41308,22.03
$IMU,40870.382,7.629,-18.066,9.033,0.07763,0.74072,0.42431,22.03
$BARO,40870.385,86912.57,22.71
$IMU,40870.385,9.826,-18.188,8.605,0.11962,0.74218,0.41943,22.01
$MAG,40870.387,-0.343,-0.421,-0.655,20.8
$IMU,40870.387,11.840,-18.249,8.178,0.14648,0.74365,0.41455,22.01
$IMU,40870.389,13.732,-18.615,7.751,0.15478,0.74267,0.40234,22.01
$IMU,40870.392,15.625,-18.981,7.385,0.14892,0.75537,0.39453,22.01
$IMU,40870.394,17.395,-19.592,6.652,0.13769,0.77050,0.38183,22.01
$IMU,40870.396,19.165,-20.141,5.554,0.13818,0.79052,0.37548,22.01
$MAG,40870.397,-0.348,-0.426,-0.655,20.9
$IMU,40870.399,20.690,-20.446,4.455,0.14648,0.79931,0.36865,22.01
$IMU,40870.401,22.155,-20.874,3.417,0.16162,0.80468,0.36816,22.01
$IMU,40870.403,23.315,-21.362,2.319,0.17675,0.81250,0.35839,22.07
$IMU,40870.406,24.353,-21.545,1.342,0.18164,0.81933,0.35546,22.07
$MAG,40870.407,-0.337,-0.420,-0.664,20.8
$IMU,40870.408,25.451,-21.728,0.488,0.19970,0.80908,0.34179,22.07
$IMU,40870.411,26.672,-21.911,-0.427,0.18750,0.82177,0.36474,22.07
$IMU,40870.413,27.526,-22.094,-1.403,0.17382,0.84228,0.36425,22.07
$IMU,40870.415,28.076,-22.277,-2.441,0.17333,0.84228,0.35839,22.07
$MAG,40870.417,-0.352,-0.435,-0.648,20.9
$IMU,40870.418,28.808,-22.827,-3.295,0.17480,0.85742,0.35107,22.07
$IMU,40870.420,29.418,-23.132,-4.211,0.17431,0.87353,0.36035,22.07
$IMU,40870.422,29.846,-23.376,-5.126,0.17871,0.88818,0.36279,22.02
$IMU,40870.425,30.212,-23.559,-5.981,0.19433,0.89501,0.36523,22.02
$IMU,40870.427,30.456,-23.437,-6.652,0.19775,0.90966,0.36523,22.02
$MAG,40870.427,-0.351,-0.426,-0.651,20.9
$IMU,40870.429,30.639,-23.620,-7.263,0.19433,0.92187,0.36328,22.02
$IMU,40870.432,30.639,-23.681,-7.751,0.18896,0.93212,0.35791,22.02
$IMU,40870.434,30.517,-23.315,-8.422,0.18505,0.95068,0.35937,22.02
$IMU,40870.436,30.395,-23.681,-8.911,0.18261,0.95751,0.35693,22.02
$MAG,40870.437,-0.337,-0.429,-0.649,20.8
$IMU,40870.439,30.212,-23.559,-9.399,0.18017,0.96044,0.36083,22.02
$IMU,40870.441,30.090,-23.742,-9.765,0.18554,0.96240,0.35693,22.03
$IMU,40870.443,29.846,-23.803,-9.948,0.18603,0.97070,0.36230,22.03
$IMU,40870.446,29.418,-23.681,-10.192,0.18847,0.98339,0.36474,22.03
$MAG,40870.447,-0.346,-0.436,-0.649,20.9
$IMU,40870.448,29.052,-23.315,-10.437,0.19335,0.99365,0.36914,22.03
$IMU,40870.450,28.503,-23.132,-10.620,0.20117,1.00146,0.37255,22.03
$IMU,40870.453,27.954,-22.766,-10.742,0.21386,1.00781,0.37988,22.03
$IMU,40870.455,27.343,-22.277,-10.742,0.21679,1.01611,0.38183,22.03
$IMU,40870.457,26.672,-21.850,-10.559,0.21972,1.01562,0.38525,22.03
$MAG,40870.458,-0.349,-0.429,-0.636,20.9
$IMU,40870.460,26.123,-21.362,-10.437,0.23583,1.01367,0.38037,22.06
$IMU,40870.462,25.634,-20.751,-10.314,0.24511,1.00683,0.37792,22.06
$IMU,40870.464,25.146,-20.019,-10.253,0.25341,1.00830,0.36669,22.06
$IMU,40870.467,24.658,-19.409,-10.131,0.24951,1.00000,0.36669,22.06
$MAG,40870.468,-0.355,-0.432,-0.648,20.9
$IMU,40870.469,24.291,-18.615,-10.070,0.24609,1.00488,0.35107,22.06
$IMU,40870.472,23.742,-17.761,-10.375,0.23828,0.99267,0.34716,22.06
$IMU,40870.474,23.315,-16.967,-10.620,0.23437,0.99267,0.32910,22.06
$IMU,40870.476,23.010,-16.357,-10.925,0.22558,0.98388,0.33837,22.06
$MAG,40870.478,-0.345,-0.439,-0.639,20.9
$IMU,40870.479,22.644,-15.563,-11.413,0.21386,0.99169,0.33007,22.06
$IMU,40870.481,22.338,-14.953,-11.962,0.21728,0.98828,0.34228,22.06
$IMU,40870.483,22.155,-14.221,-12.451,0.21533,0.98046,0.34667,22.06
$BARO,40870.486,86905.26,22.71
$IMU,40870.486,21.850,-13.366,-13.122,0.21484,0.99267,0.35449,22.06
$MAG,40870.488,-0.354,-0.439,-0.636,20.9
$IMU,40870.488,21.484,-12.390,-13.793,0.20947,0.99365,0.36425,22.06
$IMU,40870.490,20.996,-11.718,-14.404,0.19775,1.00341,0.37402,22.06
$IMU,40870.493,20.446,-10.925,-15.136,0.18554,1.01464,0.37939,22.06
$IMU,40870.495,19.958,-9.887,-16.052,0.18408,1.01123,0.37451,22.06
$IMU,40870.497,19.470,-9.216,-16.967,0.18603,1.00439,0.38232,22.04
$MAG,40870.498,-0.351,-0.450,-0.636,20.9
$IMU,40870.500,18.981,-8.239,-17.700,0.18798,1.00878,0.37646,22.04
$IMU,40870.502,18.432,-7.202,-18.615,0.19433,0.99902,0.36816,22.04
$IMU,40870.504,18.005,-6.469,-19.409,0.18994,0.99023,0.35009,22.04
$IMU,40870.507,17.517,-5.310,-19.958,0.18261,0.98535,0.34277,22.04
$MAG,40870.508,-0.349,-0.439,-0.642,20.9
$IMU,40870.509,17.150,-4.821,-20.874,0.16894,0.98583,0.33837,22.04
$IMU,40870.511,16.540,-3.967,-21.789,0.15234,0.97851,0.32861,22.04
$IMU,40870.514,16.052,-3.173,-22.705,0.13769,0.97949,0.31738,22.04
$IMU,40870.516,15.625,-2.807,-23.803,0.12597,0.97705,0.31396,22.03
$MAG,40870.518,-0.345,-0.438,-0.636,21.2
$IMU,40870.518,15.075,-2.014,-24.902,0.12060,0.98632,0.31445,22.03
$IMU,40870.521,14.648,-1.403,-26.062,0.12060,0.99023,0.31787,22.03
$IMU,40870.523,14.038,-0.488,-27.099,0.11621,0.99023,0.31298,22.03
$IMU,40870.525,13.549,0.488,-28.259,0.11083,1.00048,0.31738,22.03
$MAG,40870.528,-0.343,-0.439,-0.639,20.9
$IMU,40870.528,13.061,1.586,-29.235,0.09912,1.00976,0.31787,22.03
$IMU,40870.530,12.512,2.502,-30.151,0.08447,1.01269,0.31738,22.03
$IMU,40870.532,12.084,3.417,-31.005,0.06396,1.01660,0.32031,22.03
$IMU,40870.535,11.718,4.638,-31.677,0.04443,1.01806,0.32519,22.03
$IMU,40870.537,11.291,5.554,-32.226,0.02490,1.02587,0.33691,22.03
$MAG,40870.538,-0.343,-0.445,-0.637,20.9
$IMU,40870.540,10.864,6.225,-32.592,0.00488,1.02832,0.33740,22.03
$IMU,40870.542,10.498,7.263,-32.653,-0.01025,1.02978,0.35058,22.03
$IMU,40870.544,10.131,7.934,-32.592,-0.03271,1.02880,0.35156,22.03
$IMU,40870.547,9.521,8.544,-32.287,-0.05371,1.02978,0.36132,22.03
$MAG,40870.548,-0.339,-0.441,-0.630,20.9
$IMU,40870.549,8.972,9.338,-31.555,-0.07861,1.02636,0.36425,22.03
$IMU,40870.551,8.361,9.460,-30.578,-0.10888,1.01757,0.36718,22.03
$IMU,40870.554,7.812,9.277,-29.357,-0.13867,1.00244,0.36132,22.02
$IMU,40870.556,7.324,9.277,-27.709,-0.16308,0.99218,0.36083,22.02
$MAG,40870.558,-0.339,-0.442,-0.634,20.9
$IMU,40870.558,6.958,8.666,-26.245,-0.18896,0.98144,0.35937,22.02
$IMU,40870.561,6.408,8.056,-24.475,-0.20410,0.97460,0.35205,22.02
$IMU,40870.563,5.920,7.507,-22.644,-0.21142,0.96191,0.34667,22.02
$IMU,40870.565,5.554,6.652,-20.874,-0.21435,0.95410,0.34326,22.02
$MAG,40870.568,-0.340,-0.445,-0.633,20.9
$IMU,40870.568,5.065,5.737,-18.859,-0.21044,0.94726,0.33496,22.02
$IMU,40870.570,4.638,5.004,-16.967,-0.21093,0.94287,0.32861,22.02
$IMU,40870.572,4.150,4.211,-14.892,-0.21191,0.94189,0.32226,22.06
$IMU,40870.575,3.723,3.356,-12.939,-0.21875,0.93798,0.31884,22.06
$IMU,40870.577,3.295,2.258,-10.925,-0.22558,0.93408,0.31640,22.06
$MAG,40870.579,-0.333,-0.444,-0.631,21.0
$IMU,40870.579,2.929,1.464,-8.972,-0.22998,0.93261,0.31054,22.06
$IMU,40870.582,2.746,0.366,-7.019,-0.23828,0.92333,0.30517,22.06
$IMU,40870.584,2.563,-0.915,-5.004,-0.24169,0.91259,0.29980,22.06
$IMU,40870.586,2.380,-2.136,-3.112,-0.24121,0.90136,0.29541,22.06
$BARO,40870.588,86900.82,22.71
$MAG,40870.589,-0.336,-0.442,-0.634,21.0
$IMU,40870.589,2.380,-3.234,-1.220,-0.23681,0.88330,0.28613,22.06
$IMU,40870.591,2.380,-4.882,0.549,-0.23291,0.86425,0.27978,22.05
$IMU,40870.593,2.441,-6.103,2.258,-0.21826,0.84716,0.27246,22.05
$IMU,40870.596,2.746,-7.202,3.784,-0.20507,0.82812,0.26611,22.05
$IMU,40870.598,3.051,-8.728,5.126,-0.19238,0.81591,0.26074,22.05
$MAG,40870.599,-0.336,-0.447,-0.640,20.9
$IMU,40870.601,3.356,-9.948,6.469,-0.18017,0.80224,0.26025,22.05
$IMU,40870.603,3.784,-11.108,7.751,-0.17187,0.80371,0.26074,22.05
$IMU,40870.605,4.211,-12.573,8.911,-0.16845,0.80175,0.27001,22.05
$IMU,40870.608,4.577,-13.732,10.131,-0.16552,0.80273,0.26953,22.05
$MAG,40870.609,-0.346,-0.445,-0.633,20.9
$IMU,40870.610,4.943,-14.892,11.169,-0.16308,0.79687,0.26513,22.04
$IMU,40870.612,5.371,-16.418,12.145,-0.16113,0.79150,0.26171,22.04
$IMU,40870.615,5.920,-17.578,13.122,-0.14990,0.79101,0.25439,22.04
$IMU,40870.617,6.591,-19.042,13.977,-0.13574,0.78515,0.25292,22.04
$MAG,40870.619,-0.339,-0.454,-0.634,20.9
$IMU,40870.619,7.446,-20.141,14.526,-0.12109,0.77783,0.25000,22.04
$IMU,40870.622,8.300,-21.118,15.075,-0.10302,0.78271,0.25292,22.04
$IMU,40870.624,8.911,-22.277,15.502,-0.08203,0.78564,0.25439,22.04
$IMU,40870.626,9.643,-23.010,15.747,-0.06542,0.77929,0.25634,22.04
$MAG,40870.629,-0.349,-0.441,-0.633,20.9
$IMU,40870.629,10.314,-23.681,15.747,-0.05126,0.78222,0.25341,22.03
$IMU,40870.631,10.925,-24.414,15.747,-0.04541,0.78710,0.25439,22.03
$IMU,40870.633,11.596,-25.085,15.747,-0.04199,0.78857,0.26171,22.03
$VBAT,40870.634,4.130
$IMU,40870.636,12.207,-25.573,15.625,-0.04589,0.80078,0.26269,22.03
$IMU,40870.638,12.634,-26.062,15.441,-0.04443,0.81640,0.26757,22.03
$MAG,40870.639,-0.343,-0.450,-0.633,20.9
$IMU,40870.640,13.000,-26.672,15.014,-0.03759,0.83056,0.26660,22.03
$IMU,40870.643,13.244,-27.038,14.587,-0.03955,0.85253,0.26660,22.03
$IMU,40870.645,13.427,-27.587,14.404,-0.04101,0.88183,0.26953,22.03
$IMU,40870.647,13.427,-28.076,14.038,-0.03857,0.91503,0.27050,22.04
$MAG,40870.649,-0.348,-0.450,-0.636,20.9
$IMU,40870.650,13.183,-28.259,13.671,-0.03369,0.93798,0.27246,22.04
$IMU,40870.652,12.939,-28.503,13.305,-0.01220,0.96337,0.27343,22.04
$IMU,40870.654,12.451,-28.625,13.000,0.00292,0.99072,0.28027,22.04
$IMU,40870.657,11.840,-28.747,12.695,0.02294,1.01025,0.28417,22.04
$MAG,40870.659,-0.349,-0.448,-0.630,20.9
$IMU,40870.659,11.047,-28.625,12.390,0.04980,1.02587,0.28759,22.04
$IMU,40870.661,10.253,-28.198,12.023,0.07470,1.03320,0.28515,22.04
$IMU,40870.664,9.399,-27.770,11.535,0.10058,1.04248,0.28906,22.04
$IMU,40870.666,8.605,-27.221,10.986,0.12597,1.04150,0.29052,22.04
$MAG,40870.669,-0.354,-0.448,-0.630,20.9
$IMU,40870.669,7.934,-26.428,10.314,0.14550,1.04199,0.28662,22.04
$IMU,40870.671,7.141,-25.512,9.521,0.16064,1.03906,0.29248,22.04
$IMU,40870.673,6.408,-24.475,8.666,0.17822,1.02783,0.28857,22.04
$IMU,40870.676,5.737,-23.254,7.507,0.19970,1.01123,0.27929,22.04
$IMU,40870.678,5.249,-22.338,6.652,0.18505,1.04394,0.31103,22.04
$MAG,40870.679,-0.358,-0.450,-0.627,20.9
$IMU,40870.680,4.394,-21.240,5.859,0.17285,1.05224,0.31835,22.04
$IMU,40870.683,3.295,-20.080,4.760,0.18066,1.02880,0.31054,22.04
$IMU,40870.685,2.441,-19.104,3.784,0.18652,1.02050,0.30859,22.04
$IMU,40870.687,2.014,-18.188,2.807,0.18408,1.03027,0.31005,22.04
$BARO,40870.689,86908.40,22.71
$MAG,40870.689,-0.357,-0.448,-0.625,20.9
$IMU,40870.690,1.403,-17.089,1.770,0.19042,1.02929,0.31982,22.04
$IMU,40870.692,0.671,-16.113,0.671,0.19824,1.02490,0.32421,22.04
$IMU,40870.694,0.061,-15.197,-0.305,0.20605,1.02441,0.32958,22.04
$IMU,40870.697,-0.610,-14.160,-1.159,0.21386,1.02294,0.33251,22.04
$IMU,40870.699,-1.403,-13.122,-2.014,0.21484,1.03027,0.34228,22.04
$MAG,40870.700,-0.349,-0.448,-0.628,20.9
$IMU,40870.701,-2.136,-12.268,-2.807,0.21679,1.03759,0.34619,22.04
$IMU,40870.704,-3.112,-11.169,-3.662,0.21630,1.03564,0.35009,22.03
$IMU,40870.706,-3.784,-10.437,-4.455,0.21679,1.03906,0.34716,22.03
$IMU,40870.708,-4.577,-9.460,-5.249,0.21728,1.04394,0.35400,22.03
$MAG,40870.710,-0.357,-0.447,-0.630,20.9
$IMU,40870.711,-5.432,-8.422,-6.164,0.22070,1.04150,0.34716,22.03
$IMU,40870.713,-6.225,-7.568,-7.080,0.22167,1.03466,0.34326,22.03
$IMU,40870.715,-6.896,-6.591,-7.995,0.23681,1.02246,0.33593,22.03
$IMU,40870.718,-7.385,-5.676,-8.911,0.22851,1.03125,0.34130,22.03
$MAG,40870.720,-0.361,-0.448,-0.628,21.0
$IMU,40870.720,-7.995,-4.760,-9.765,0.22509,1.03662,0.34326,22.03
$IMU,40870.722,-8.666,-3.723,-10.620,0.22509,1.03369,0.34228,22.08
$IMU,40870.725,-9.460,-2.929,-11.413,0.22216,1.03759,0.34863,22.08
$IMU,40870.727,-10.253,-2.014,-12.207,0.21826,1.03759,0.35253,22.08
$MAG,40870.730,-0.357,-0.451,-0.630,20.9
$IMU,40870.730,-10.986,-0.854,-13.122,0.23144,1.03955,0.34960,22.08
$IMU,40870.732,-11.657,0.061,-14.038,0.23242,1.04687,0.35205,22.08
$IMU,40870.734,-12.390,1.220,-14.953,0.23193,1.04736,0.35595,22.08
$IMU,40870.737,-13.122,2.258,-15.869,0.24218,1.04589,0.35400,22.08
$IMU,40870.739,-13.854,3.234,-16.723,0.25048,1.03613,0.34960,22.08
$MAG,40870.740,-0.361,-0.447,-0.622,20.9
$IMU,40870.741,-14.587,4.455,-17.639,0.25878,1.02343,0.33349,22.06
$IMU,40870.744,-15.319,5.493,-18.493,0.25585,1.02783,0.32421,22.06
$IMU,40870.746,-16.052,6.347,-19.287,0.24121,1.02392,0.32373,22.06
$IMU,40870.748,-16.845,7.141,-20.202,0.22119,1.02636,0.31640,22.06
$MAG,40870.750,-0.360,-0.451,-0.636,20.9
$IMU,40870.751,-17.700,8.117,-21.118,0.20166,1.03076,0.30810,22.06
$IMU,40870.753,-18.554,8.605,-22.033,0.17968,1.04394,0.31054,22.06
$IMU,40870.755,-19.470,9.155,-23.071,0.17675,1.08740,0.33203,22.06
$IMU,40870.758,-20.507,9.948,-24.230,0.14843,1.06933,0.31445,22.06
$MAG,40870.760,-0.352,-0.445,-0.631,20.9
$IMU,40870.760,-21.667,9.765,-24.658,0.10791,1.05810,0.30615,22.07
$IMU,40870.762,-22.766,9.155,-24.658,0.07714,1.08789,0.28808,22.07
$IMU,40870.765,-23.986,9.155,-25.085,0.04980,1.07763,0.28271,22.07
$IMU,40870.767,-24.658,8.850,-25.512,0.01806,1.08740,0.28222,22.07
$IMU,40870.769,-25.512,8.605,-25.451,-0.00048,1.10693,0.29345,22.07
$MAG,40870.770,-0.343,-0.448,-0.631,20.9
$IMU,40870.772,-26.611,8.056,-25.268,-0.00390,1.09765,0.28466,22.07
$IMU,40870.774,-27.770,7.507,-24.902,-0.02294,1.08593,0.27490,22.07
$IMU,40870.776,-28.808,6.591,-24.291,-0.03808,1.08105,0.26269,22.07
$IMU,40870.779,-29.846,5.554,-23.498,-0.07275,1.08740,0.27197,22.05
$MAG,40870.780,-0.348,-0.445,-0.636,21.0
$IMU,40870.781,-31.005,4.211,-22.827,-0.10937,1.08984,0.27001,22.05
$IMU,40870.783,-31.982,2.624,-22.399,-0.12841,1.08935,0.26708,22.05
$IMU,40870.786,-32.958,1.342,-21.911,-0.14111,1.08593,0.26464,22.05
$IMU,40870.788,-33.752,-0.061,-21.484,-0.14453,1.08447,0.26513,22.05
$MAG,40870.790,-0.357,-0.429,-0.625,20.9
$IMU,40870.790,-34.545,-1.525,-21.118,-0.13867,1.07275,0.25927,22.05
$BARO,40870.791,86902.21,22.71
$IMU,40870.793,-35.217,-2.563,-20.690,-0.12744,1.06347,0.25830,22.05
$IMU,40870.795,-35.888,-4.028,-20.202,-0.12988,1.06347,0.26269,22.05
$IMU,40870.798,-36.560,-5.249,-19.775,-0.12207,1.04638,0.26611,22.08
$MAG,40870.800,-0.345,-0.441,-0.642,20.9
$IMU,40870.800,-37.170,-6.225,-19.470,-0.11523,1.03515,0.26660,22.08
$IMU,40870.802,-37.658,-7.324,-18.981,-0.11621,1.02392,0.27001,22.08
$IMU,40870.805,-38.024,-8.422,-18.615,-0.11816,1.01855,0.27783,22.08
$IMU,40870.807,-38.391,-9.704,-18.066,-0.13037,1.01318,0.29101,22.08
$IMU,40870.809,-38.879,-10.681,-17.639,-0.13574,0.98828,0.29589,22.08
$MAG,40870.810,-0.340,-0.436,-0.643,20.9
$IMU,40870.812,-39.184,-11.901,-17.272,-0.13769,0.97216,0.29882,22.08
$IMU,40870.814,-39.306,-13.244,-16.845,-0.14453,0.95751,0.30468,22.08
$IMU,40870.816,-39.428,-14.526,-16.540,-0.14257,0.93164,0.29492,22.06
$IMU,40870.819,-39.367,-15.869,-16.235,-0.13916,0.92578,0.30224,22.06
$MAG,40870.821,-0.342,-0.432,-0.648,21.2
$IMU,40870.821,-39.245,-17.272,-16.113,-0.13720,0.90673,0.30371,22.06
$IMU,40870.823,-39.062,-18.493,-16.052,-0.11279,0.90087,0.30224,22.06
$IMU,40870.826,-38.757,-19.653,-16.174,-0.10498,0.87548,0.30371,22.06
$IMU,40870.828,-38.330,-20.751,-16.418,-0.08593,0.87207,0.30566,22.06
$IMU,40870.830,-37.902,-21.972,-16.113,-0.01611,0.94042,0.33203,22.06
$MAG,40870.831,-0.343,-0.430,-0.655,20.9
$IMU,40870.833,-37.902,-23.437,-14.953,0.07031,0.98828,0.35205,22.06
$IMU,40870.835,-38.452,-24.108,-13.305,0.10986,0.98876,0.35693,22.07
$IMU,40870.837,-39.062,-23.315,-12.634,0.11962,0.96435,0.37939,22.07
$IMU,40870.840,-39.428,-22.338,-12.329,0.07958,0.92138,0.38623,22.07
$MAG,40870.841,-0.349,-0.426,-0.657,21.4
$IMU,40870.842,-39.367,-20.690,-13.061,0.02978,0.88867,0.40429,22.07
$IMU,40870.844,-38.940,-19.897,-13.977,0.01513,0.85253,0.38085,22.07
$IMU,40870.847,-38.269,-19.531,-14.526,-0.00244,0.79394,0.37304,22.07
$IMU,40870.849,-37.170,-19.531,-14.953,0.00976,0.75634,0.35839,22.07
$MAG,40870.851,-0.352,-0.418,-0.655,21.2
$IMU,40870.851,-35.888,-19.714,-15.258,0.01611,0.72412,0.35058,22.07
$IMU,40870.854,-34.362,-19.714,-15.502,0.00732,0.70263,0.35400,22.05
$IMU,40870.856,-32.958,-19.592,-15.747,-0.01855,0.70019,0.36474,22.05
$IMU,40870.859,-31.555,-19.714,-16.052,-0.03027,0.71142,0.37695,22.05
$MAG,40870.861,-0.345,-0.417,-0.661,21.0
$IMU,40870.861,-30.273,-19.775,-16.479,-0.03564,0.71728,0.38476,22.05
$IMU,40870.863,-28.991,-19.653,-16.723,-0.03955,0.73242,0.40869,22.05
$IMU,40870.866,-27.893,-19.897,-16.723,-0.02880,0.75000,0.42236,22.05
$IMU,40870.868,-26.916,-19.775,-16.418,-0.01953,0.75830,0.42773,22.05
$IMU,40870.870,-25.878,-19.775,-16.052,-0.00488,0.74804,0.43945,22.05
$MAG,40870.871,-0.342,-0.421,-0.658,21.0
$IMU,40870.873,-24.841,-19.836,-15.380,0.02343,0.73876,0.43164,22.11
$IMU,40870.875,-24.047,-20.080,-14.343,0.12988,0.78076,0.46093,22.11
$IMU,40870.877,-23.498,-19.653,-12.756,0.16943,0.73339,0.43701,22.11
$IMU,40870.880,-22.521,-18.493,-11.840,0.13623,0.76416,0.46679,22.11
$MAG,40870.881,-0.345,-0.412,-0.655,20.9
$IMU,40870.882,-21.728,-17.333,-11.413,0.09863,0.73388,0.45410,22.11
$IMU,40870.884,-20.263,-16.296,-11.230,0.06347,0.72265,0.46484,22.11
$IMU,40870.887,-19.042,-15.441,-11.169,0.06347,0.73681,0.47656,22.11
$IMU,40870.889,-18.066,-14.709,-10.803,0.08789,0.72949,0.47460,22.11
$MAG,40870.891,-0.354,-0.417,-0.672,21.2
$IMU,40870.891,-17.211,-13.793,-10.070,0.12744,0.71875,0.46582,22.04
$BARO,40870.893,86907.35,22.71
$IMU,40870.894,-16.052,-13.061,-8.850,0.16308,0.71044,0.46972,22.04
$IMU,40870.896,-15.075,-12.145,-7.202,0.19873,0.70117,0.47363,22.04
$IMU,40870.898,-13.732,-11.047,-5.676,0.15625,0.71435,0.50732,22.04
$MAG,40870.901,-0.351,-0.412,-0.669,21.3
$IMU,40870.901,-12.939,-9.704,-4.516,0.13330,0.73046,0.50634,22.04
$IMU,40870.903,-12.023,-8.117,-3.417,0.12646,0.72460,0.50341,22.04
$IMU,40870.905,-10.681,-6.835,-2.624,0.11376,0.70947,0.49511,22.04
$IMU,40870.908,-9.399,-5.798,-1.953,0.10888,0.70703,0.49755,22.04
$IMU,40870.910,-8.117,-4.760,-1.220,0.09960,0.70654,0.49316,22.08
$MAG,40870.911,-0.340,-0.409,-0.660,20.9
$IMU,40870.912,-7.080,-3.845,-0.427,0.09130,0.69726,0.49023,22.08
$IMU,40870.915,-5.737,-3.234,0.244,0.07763,0.69433,0.48681,22.08
$IMU,40870.917,-4.577,-2.319,0.915,0.05810,0.70361,0.49218,22.08
$IMU,40870.919,-3.356,-1.770,1.525,0.03808,0.71240,0.49414,22.08
$MAG,40870.921,-0.351,-0.426,-0.667,20.9
$IMU,40870.922,-2.014,-1.403,1.953,0.02441,0.72363,0.49609,22.08
$IMU,40870.924,-0.854,-1.037,2.197,0.01074,0.73339,0.49804,22.08
$IMU,40870.927,0.244,-0.549,2.319,0.00781,0.73583,0.49462,22.08
$IMU,40870.929,1.464,-0.305,2.380,0.00488,0.73779,0.49072,22.04
$MAG,40870.931,-0.351,-0.414,-0.675,20.9
$IMU,40870.931,2.502,0.061,2.380,0.00439,0.74658,0.49218,22.04
$IMU,40870.934,3.479,0.427,2.502,0.01269,0.75341,0.49169,22.04
$HUM,40870.936,41.3,23.0
$IMU,40870.936,4.455,0.793,2.929,0.02099,0.76660,0.49609,22.04
$IMU,40870.938,5.493,0.854,3.417,0.03271,0.77148,0.50048,22.04
$MAG,40870.941,-0.342,-0.411,-0.660,20.9
$IMU,40870.941,6.408,1.159,3.845,0.03955,0.78076,0.50488,22.04
$IMU,40870.943,7.019,1.770,4.272,0.04541,0.79199,0.50878,22.04
$IMU,40870.945,7.812,2.136,4.821,0.04882,0.79443,0.51513,22.04
$IMU,40870.948,8.483,2.624,5.310,0.05957,0.79931,0.51953,22.08
$IMU,40870.950,9.094,3.112,5.615,0.06591,0.79833,0.51757,22.08
$MAG,40870.952,-0.355,-0.414,-0.675,20.9
$IMU,40870.952,9.765,3.540,5.920,0.07568,0.79248,0.51171,22.08
$IMU,40870.955,10.437,3.967,6.225,0.07812,0.78759,0.50976,22.08
$IMU,40870.957,11.169,4.516,6.469,0.08789,0.78564,0.50585,22.08
$IMU,40870.959,11.840,5.065,6.652,0.10058,0.78369,0.50976,22.08
$MAG,40870.962,-0.346,-0.414,-0.666,21.0
$IMU,40870.962,12.573,5.615,6.713,0.11572,0.77783,0.50683,22.08
$IMU,40870.964,13.366,6.469,6.835,0.13232,0.77392,0.50878,22.08
$IMU,40870.966,14.160,7.202,6.896,0.14843,0.77050,0.50976,22.04
$IMU,40870.969,15.075,8.056,7.080,0.15625,0.76806,0.51074,22.04
$IMU,40870.971,16.052,8.972,7.141,0.16162,0.76708,0.51220,22.04
$MAG,40870.972,-0.358,-0.417,-0.663,20.9
$IMU,40870.973,16.967,9.887,7.202,0.16113,0.76660,0.50976,22.04
$IMU,40870.976,17.700,10.986,7.385,0.15673,0.76660,0.50878,22.04
$IMU,40870.978,18.493,11.840,7.568,0.15429,0.77099,0.50585,22.04
$IMU,40870.980,19.348,12.390,7.812,0.14160,0.77685,0.50439,22.04
$MAG,40870.982,-0.355,-0.421,-0.663,20.9
$IMU,40870.983,20.019,12.878,7.995,0.13378,0.78564,0.50488,22.04
$IMU,40870.985,20.629,13.427,8.300,0.12255,0.80126,0.50781,22.08
$IMU,40870.988,20.935,13.916,8.666,0.11962,0.81591,0.50927,22.08
$IMU,40870.990,21.179,14.343,8.850,0.11425,0.83251,0.50585,22.08
$MAG,40870.992,-0.340,-0.417,-0.660,20.9
$IMU,40870.992,21.484,14.648,8.972,0.10546,0.83642,0.49804,22.08
$BARO,40870.994,86910.79,22.71
$IMU,40870.995,21.789,15.075,9.094,0.09667,0.85791,0.50195,22.08
$IMU,40870.997,21.911,15.319,9.033,0.08203,0.88183,0.50683,22.08
$IMU,40870.999,22.155,15.502,9.155,0.08154,0.89062,0.50292,22.08
$MAG,40871.002,-0.343,-0.417,-0.652,21.0
$IMU,40871.002,22.216,15.869,9.155,0.07763,0.89355,0.49462,22.08
$IMU,40871.004,22.277,16.296,9.033,0.07666,0.89746,0.48876,22.03
$IMU,40871.006,22.460,16.479,9.033,0.07275,0.90869,0.48144,22.03
$IMU,40871.009,22.521,16.540,9.094,0.06152,0.91992,0.48046,22.03
$IMU,40871.011,22.644,16.601,9.094,0.05029,0.93408,0.48046,22.03
$MAG,40871.012,-0.349,-0.424,-0.660,20.9
$IMU,40871.013,22.644,16.601,9.094,0.04687,0.93896,0.47900,22.03
$IMU,40871.016,22.583,16.723,8.972,0.03613,0.94628,0.47460,22.03
$IMU,40871.018,22.521,16.967,8.850,0.02832,0.94873,0.47265,22.03
$IMU,40871.020,22.277,16.906,8.850,0.01904,0.95361,0.47363,22.03
$MAG,40871.022,-0.349,-0.423,-0.658,21.0
$IMU,40871.023,22.155,16.906,8.850,0.01806,0.95312,0.47021,22.04
$IMU,40871.025,22.094,16.784,8.911,0.01220,0.95068,0.46337,22.04
$IMU,40871.027,21.850,16.601,8.972,0.00634,0.94677,0.45898,22.04
$IMU,40871.030,21.789,16.479,8.972,0.00244,0.94384,0.46093,22.04
$MAG,40871.032,-0.339,-0.429,-0.651,20.9
$IMU,40871.032,21.728,16.418,9.033,-0.00488,0.93945,0.45703,22.04
$IMU,40871.034,21.728,16.418,9.155,-0.00537,0.93261,0.45312,22.04
$IMU,40871.037,21.850,16.235,9.094,-0.00537,0.92089,0.44677,22.04
$IMU,40871.039,22.155,16.113,9.094,-0.00488,0.91406,0.44238,22.04
$IMU,40871.041,22.399,15.991,9.033,-0.00683,0.90039,0.43115,22.06
$MAG,40871.042,-0.345,-0.429,-0.652,21.0
$IMU,40871.044,22.705,15.991,8.789,-0.00341,0.89160,0.43261,22.06
$IMU,40871.046,23.071,16.113,8.666,0.00097,0.88085,0.42333,22.06
$IMU,40871.049,23.498,16.052,8.483,-0.00048,0.86962,0.41894,22.06
$IMU,40871.051,24.108,15.991,8.300,-0.00390,0.87060,0.41699,22.06
$MAG,40871.052,-0.354,-0.435,-0.651,20.9
$IMU,40871.053,24.658,15.930,8.300,-0.00732,0.86523,0.41796,22.06
$IMU,40871.056,25.207,15.686,8.300,-0.01757,0.86376,0.41210,22.06
$IMU,40871.058,25.634,15.502,8.422,-0.02636,0.86523,0.41064,22.06
$IMU,40871.060,26.062,15.563,8.666,-0.02832,0.86816,0.40869,22.06
$MAG,40871.062,-0.349,-0.426,-0.640,21.3
$IMU,40871.063,26.550,15.136,8.850,-0.02783,0.86474,0.40917,22.06
$IMU,40871.065,26.977,14.953,9.155,-0.03271,0.86816,0.40283,22.06
$IMU,40871.067,27.404,14.465,9.521,-0.03564,0.87353,0.39794,22.06
$IMU,40871.070,27.709,13.977,9.948,-0.03759,0.87646,0.39843,22.06
$IMU,40871.072,27.954,13.671,10.437,-0.04248,0.88476,0.39794,22.06
$MAG,40871.073,-0.343,-0.435,-0.645,20.9
$IMU,40871.074,28.137,13.183,10.925,-0.04345,0.89599,0.39550,22.06
$IMU,40871.077,28.198,12.634,11.413,-0.05078,0.90332,0.39501,22.06
$IMU,40871.079,28.320,12.023,11.840,-0.04785,0.90478,0.39257,22.09
$IMU,40871.081,28.320,11.657,12.268,-0.04687,0.91210,0.38574,22.09
$MAG,40871.083,-0.336,-0.438,-0.642,20.9
$IMU,40871.084,28.320,11.108,12.634,-0.04589,0.91455,0.38037,22.09
$IMU,40871.086,28.381,10.620,12.939,-0.04687,0.91406,0.37109,22.09
$IMU,40871.088,28.442,10.131,13.122,-0.04785,0.91699,0.36816,22.09
$IMU,40871.091,28.564,9.643,13.244,-0.05468,0.92236,0.36279,22.09
$MAG,40871.093,-0.345,-0.435,-0.645,20.9
$IMU,40871.093,28.747,9.277,13.244,-0.05957,0.92480,0.36083,22.09
$IMU,40871.095,28.991,8.605,13.061,-0.06396,0.92919,0.35839,22.09
$BARO,40871.096,86901.57,22.71
$IMU,40871.098,29.296,7.995,13.000,-0.06250,0.92822,0.35400,22.07
$IMU,40871.100,29.418,7.629,12.695,-0.06103,0.93310,0.35156,22.07
$IMU,40871.102,29.541,7.080,12.451,-0.06054,0.93994,0.35009,22.07
$MAG,40871.103,-0.342,-0.441,-0.642,20.9
$IMU,40871.105,29.602,6.469,12.268,-0.05566,0.94238,0.34667,22.07
$IMU,40871.107,29.785,5.920,12.084,-0.05273,0.94726,0.34570,22.07
$IMU,40871.109,29.785,5.371,11.901,-0.04980,0.94970,0.34326,22.07
$IMU,40871.112,29.846,4.943,11.596,-0.04345,0.94628,0.34179,22.07
$MAG,40871.113,-0.340,-0.441,-0.642,20.9
$IMU,40871.114,29.907,4.699,11.352,-0.03515,0.94482,0.33642,22.07
$IMU,40871.117,30.090,4.394,10.986,-0.02636,0.93896,0.33398,22.04
$IMU,40871.119,30.334,3.784,10.681,-0.01562,0.93017,0.33154,22.04
$IMU,40871.121,30.578,3.662,10.375,-0.02343,0.91113,0.30761,22.04
$MAG,40871.123,-0.349,-0.444,-0.631,20.9
$IMU,40871.124,31.433,3.295,9.460,-0.04492,0.92041,0.29833,22.04
$IMU,40871.126,32.104,2.929,8.178,-0.05859,0.93847,0.31250,22.04
$IMU,40871.128,32.470,2.685,7.019,-0.04003,0.93457,0.29101,22.04
$IMU,40871.131,33.081,2.197,5.981,-0.00390,0.90429,0.27539,22.04
$MAG,40871.133,-0.348,-0.444,-0.640,21.0
$IMU,40871.133,33.874,1.708,5.249,0.01464,0.90380,0.26171,22.04
$IMU,40871.135,34.790,1.403,4.577,0.01708,0.90576,0.26025,22.08
$IMU,40871.138,35.766,0.854,3.723,-0.00439,0.92871,0.27441,22.08
$IMU,40871.140,36.376,0.488,2.685,-0.00634,0.95312,0.28759,22.08
$IMU,40871.142,36.560,0.122,1.953,0.00976,0.95458,0.27294,22.08
$MAG,40871.143,-0.340,-0.448,-0.627,20.9
$IMU,40871.145,36.804,-0.122,1.403,0.02685,0.95312,0.26562,22.08
$IMU,40871.147,37.292,-0.671,1.098,0.04052,0.96289,0.26708,22.08
$IMU,40871.149,37.414,-1.098,0.915,0.04785,0.97802,0.27246,22.08
$IMU,40871.152,37.536,-1.647,0.915,0.04931,0.98339,0.26904,22.08
$MAG,40871.153,-0.340,-0.451,-0.622,21.0
$IMU,40871.154,37.597,-2.075,1.037,0.05224,0.98779,0.26171,22.09
$IMU,40871.156,37.658,-2.563,1.342,0.05175,1.00000,0.26025,22.09
$IMU,40871.159,37.658,-2.807,1.342,0.04541,1.00732,0.25292,22.09
$IMU,40871.161,37.597,-2.990,1.220,0.04296,1.01953,0.24755,22.09
$MAG,40871.163,-0.346,-0.453,-0.628,20.9
$IMU,40871.163,37.658,-3.234,1.159,0.04296,1.03173,0.24707,22.09
$IMU,40871.166,37.658,-3.540,0.915,0.04589,1.04443,0.24414,22.09
$IMU,40871.168,37.658,-3.845,0.610,0.04785,1.06884,0.24121,22.09
$IMU,40871.170,37.536,-4.028,0.305,0.05224,1.09179,0.24267,22.09
$MAG,40871.173,-0.346,-0.456,-0.618,20.9
$IMU,40871.173,37.109,-4.150,0.061,0.05322,1.11474,0.24462,22.08
$IMU,40871.175,36.682,-4.516,-0.183,0.05419,1.14550,0.23437,22.08
$IMU,40871.178,36.132,-4.943,-0.488,0.05224,1.22119,0.23339,22.08
$IMU,40871.180,35.095,-5.187,-1.159,0.05664,1.29687,0.23095,22.08
$IMU,40871.182,33.630,-5.493,-2.197,0.06152,1.32373,0.23681,22.08
$MAG,40871.184,-0.345,-0.462,-0.613,21.0
$IMU,40871.185,32.043,-5.493,-3.173,0.06298,1.30761,0.23388,22.08
$IMU,40871.187,30.578,-5.737,-4.028,0.07031,1.27246,0.22753,22.08
$IMU,40871.189,29.296,-6.042,-4.638,0.07373,1.25830,0.23095,22.08
$IMU,40871.192,27.832,-6.347,-5.065,0.08203,1.25732,0.23291,22.09
$MAG,40871.194,-0.345,-0.457,-0.618,20.9
$IMU,40871.194,26.367,-6.591,-5.432,0.09716,1.25585,0.23046,22.09
$IMU,40871.196,24.780,-6.835,-5.554,0.11279,1.24804,0.21679,22.09
$BARO,40871.197,86917.35,22.71
$IMU,40871.199,23.498,-7.019,-5.676,0.12500,1.24072,0.21044,22.09
$IMU,40871.201,22.094,-6.896,-5.859,0.12500,1.23925,0.20458,22.09
$IMU,40871.203,20.629,-6.958,-5.920,0.12548,1.23535,0.20166,22.09
$MAG,40871.204,-0.354,-0.465,-0.615,21.4
$IMU,40871.206,19.165,-7.019,-5.981,0.11816,1.22412,0.19628,22.09
$IMU,40871.208,17.822,-7.080,-6.042,0.11474,1.22119,0.19482,22.09
$IMU,40871.210,16.296,-7.263,-5.981,0.10937,1.22021,0.19580,22.08
$IMU,40871.213,14.892,-7.446,-5.737,0.10351,1.20556,0.18408,22.08
$MAG,40871.214,-0.349,-0.453,-0.603,21.0
$IMU,40871.215,13.610,-7.385,-5.676,0.08154,1.19238,0.18896,22.08
$IMU,40871.217,12.451,-7.629,-5.554,0.06884,1.21484,0.18261,22.08
$IMU,40871.220,10.864,-7.934,-5.554,0.07666,1.22119,0.17822,22.08
$IMU,40871.222,9.399,-8.056,-5.432,0.09326,1.20654,0.16943,22.08
$MAG,40871.224,-0.343,-0.457,-0.606,20.9
$IMU,40871.224,8.117,-7.995,-5.310,0.11376,1.20898,0.16894,22.08
$IMU,40871.227,6.896,-7.934,-5.126,0.13037,1.20556,0.17089,22.08
$IMU,40871.229,5.554,-7.751,-4.943,0.14404,1.20507,0.17822,22.06
$IMU,40871.231,4.150,-7.385,-4.455,0.17236,1.20507,0.19726,22.06
$MAG,40871.234,-0.346,-0.465,-0.618,20.9
$IMU,40871.234,2.136,-6.774,-3.417,0.22314,1.18066,0.20947,22.06
$IMU,40871.236,0.061,-6.225,-1.525,0.27148,1.11181,0.20410,22.06
$IMU,40871.238,-1.220,-5.187,0.854,0.27148,1.04492,0.18017,22.06
$IMU,40871.241,-1.831,-4.211,2.563,0.22460,1.06201,0.19335,22.06
$IMU,40871.243,-3.051,-2.868,3.601,0.18896,1.08593,0.21533,22.06
$MAG,40871.244,-0.346,-0.460,-0.613,21.0
$IMU,40871.246,-4.577,-1.525,4.516,0.18701,1.04589,0.20117,22.06
$IMU,40871.248,-5.432,-0.549,5.493,0.20068,1.00537,0.17236,22.08
$IMU,40871.250,-5.615,0.183,6.469,0.19628,0.99560,0.16992,22.08
$IMU,40871.253,-6.103,1.281,7.202,0.17236,1.02050,0.18603,22.08
$MAG,40871.254,-0.351,-0.472,-0.613,20.9
$IMU,40871.255,-6.896,2.197,7.873,0.15625,1.04248,0.20166,22.08
$IMU,40871.257,-7.873,2.990,8.300,0.14697,1.04980,0.19921,22.08
$IMU,40871.260,-8.850,3.906,8.728,0.13574,1.05175,0.19335,22.08
$IMU,40871.262,-9.765,4.577,8.850,0.12255,1.07275,0.19140,22.08
$MAG,40871.264,-0.349,-0.462,-0.613,20.9
$IMU,40871.264,-10.803,5.187,8.544,0.10693,1.09423,0.19726,22.08
$IMU,40871.267,-12.145,5.676,8.483,0.09619,1.10058,0.19824,22.06
$IMU,40871.269,-13.549,5.737,8.422,0.08349,1.09814,0.19824,22.06
$IMU,40871.271,-15.014,5.737,8.544,0.07373,1.09570,0.19384,22.06
$MAG,40871.274,-0.346,-0.459,-0.610,20.9
$IMU,40871.274,-16.296,5.615,8.483,0.06152,1.09472,0.19628,22.06
$IMU,40871.276,-17.822,5.371,8.483,0.04492,1.09765,0.20019,22.06
$IMU,40871.278,-19.348,5.126,8.178,0.02734,1.09863,0.20068,22.06
$IMU,40871.281,-20.751,4.333,7.812,0.01025,1.09375,0.19531,22.06
$IMU,40871.283,-22.216,3.967,7.263,-0.00683,1.09130,0.19189,22.06
$MAG,40871.284,-0.357,-0.463,-0.625,21.2
$IMU,40871.285,-23.559,3.356,6.530,-0.02148,1.08447,0.18847,22.08
$IMU,40871.288,-24.658,2.746,5.493,-0.03271,1.08154,0.18603,22.08
$IMU,40871.290,-25.817,2.319,4.272,-0.03662,1.07470,0.18457,22.08
$IMU,40871.292,-26.733,1.708,3.051,-0.03808,1.06933,0.18017,22.08
$MAG,40871.294,-0.351,-0.454,-0.624,20.9
$IMU,40871.295,-27.587,0.915,1.831,-0.03173,1.05859,0.17529,22.08
$IMU,40871.297,-28.442,0.305,0.610,-0.02099,1.04736,0.17773,22.08
$BARO,40871.299,86903.16,22.72
$IMU,40871.299,-29.174,-0.183,-0.427,-0.01318,1.04199,0.18066,22.08
$IMU,40871.302,-29.968,-0.610,-1.525,-0.00048,1.03613,0.18603,22.08
$IMU,40871.304,-30.639,-1.220,-2.624,0.01074,1.03222,0.18847,22.06
$MAG,40871.305,-0.349,-0.457,-0.621,20.9
$IMU,40871.307,-31.311,-1.586,-3.723,0.02783,1.02978,0.19238,22.06
$IMU,40871.309,-32.043,-1.831,-5.004,0.03906,1.02832,0.19628,22.06
$IMU,40871.311,-32.714,-2.014,-6.286,0.05029,1.02001,0.19873,22.06
$IMU,40871.314,-33.447,-2.136,-7.568,0.05810,1.01708,0.19677,22.06
$MAG,40871.315,-0.355,-0.456,-0.619,20.9
$IMU,40871.316,-33.874,-2.502,-9.094,0.06494,1.01367,0.19287,22.06
$IMU,40871.318,-34.301,-2.624,-10.742,0.06835,1.01611,0.19433,22.06
$IMU,40871.321,-34.606,-2.929,-12.634,0.07421,1.01562,0.19628,22.06
$IMU,40871.323,-34.973,-3.051,-14.404,0.07714,1.01757,0.19287,22.07
$MAG,40871.325,-0.351,-0.454,-0.616,21.0
$IMU,40871.325,-35.278,-3.356,-16.113,0.07519,1.01416,0.19433,22.07
$IMU,40871.328,-35.583,-3.540,-17.639,0.07812,1.02050,0.20996,22.07
$IMU,40871.330,-36.254,-3.601,-18.798,0.08789,1.01904,0.21533,22.07
$IMU,40871.332,-36.987,-3.662,-19.653,0.08935,1.00976,0.20996,22.07
$MAG,40871.335,-0.352,-0.453,-0.631,20.9
$IMU,40871.335,-37.353,-3.784,-20.446,0.08642,1.00830,0.21630,22.07
$IMU,40871.337,-37.719,-4.028,-21.179,0.08496,1.00781,0.22119,22.07
$IMU,40871.339,-38.208,-3.967,-22.094,0.08447,0.99804,0.21728,22.07
$IMU,40871.342,-38.391,-3.967,-22.949,0.08447,0.98730,0.21728,22.08
$IMU,40871.344,-38.574,-3.601,-23.864,0.08154,0.98095,0.21728,22.08
$MAG,40871.345,-0.351,-0.444,-0.628,20.9
$IMU,40871.346,-38.513,-3.356,-24.902,0.08154,0.97265,0.22021,22.08
$IMU,40871.349,-38.391,-3.112,-25.939,0.08886,0.96142,0.22119,22.08
$IMU,40871.351,-38.146,-2.868,-26.855,0.09912,0.95214,0.22753,22.08
$IMU,40871.353,-37.963,-2.441,-27.465,0.10400,0.93310,0.23046,22.08
$MAG,40871.355,-0.346,-0.445,-0.631,20.9
$IMU,40871.356,-37.780,-1.953,-28.015,0.11376,0.91455,0.23339,22.08
$IMU,40871.358,-37.597,-1.464,-28.137,0.11865,0.89794,0.23828,22.08
$IMU,40871.360,-37.292,-1.098,-28.076,0.12451,0.88085,0.24658,22.05
$IMU,40871.363,-36.987,-0.854,-27.709,0.12353,0.86181,0.24365,22.05
$MAG,40871.365,-0.346,-0.441,-0.633,20.9
$IMU,40871.365,-36.560,-0.671,-27.160,0.11279,0.84765,0.24853,22.05
$IMU,40871.367,-36.193,-0.549,-26.550,0.08984,0.84228,0.25439,22.05
$IMU,40871.370,-35.888,-0.610,-25.939,0.07080,0.83105,0.25634,22.05
$IMU,40871.372,-35.644,-0.488,-25.207,0.05419,0.84130,0.26513,22.05
$IMU,40871.375,-35.278,-0.854,-24.658,0.04833,0.89013,0.26757,22.05
$MAG,40871.375,-0.337,-0.433,-0.642,20.9
$IMU,40871.377,-34.912,-1.464,-24.353,0.04980,0.93847,0.25488,22.05
$IMU,40871.379,-34.667,-2.136,-24.047,0.03808,0.91699,0.25048,22.08
$IMU,40871.382,-34.301,-2.319,-23.620,0.00878,0.86572,0.26464,22.08
$IMU,40871.384,-33.569,-2.319,-23.132,-0.03320,0.85791,0.27148,22.08
$MAG,40871.385,-0.343,-0.438,-0.645,20.9
$IMU,40871.386,-33.142,-2.685,-22.583,-0.06689,0.87109,0.27734,22.08
$IMU,40871.389,-32.836,-3.479,-21.789,-0.07763,0.83691,0.27783,22.08
$IMU,40871.391,-32.104,-4.333,-20.935,-0.08593,0.80566,0.26464,22.08
$IMU,40871.393,-31.433,-5.249,-19.958,-0.09375,0.78417,0.26123,22.08
$MAG,40871.395,-0.343,-0.421,-0.639,21.2
$IMU,40871.396,-30.761,-6.164,-18.981,-0.10498,0.77392,0.26513,22.08
$IMU,40871.398,-29.968,-6.896,-17.761,-0.11767,0.77490,0.27001,22.03
$BARO,40871.400,86895.99,22.71
$IMU,40871.400,-29.418,-7.812,-16.479,-0.12402,0.78027,0.27099,22.03
$IMU,40871.403,-28.686,-8.972,-15.258,-0.13232,0.78613,0.27929,22.03
$MAG,40871.405,-0.337,-0.427,-0.651,20.9
$IMU,40871.405,-28.076,-9.582,-14.038,-0.13720,0.79931,0.28662,22.03
$IMU,40871.407,-27.465,-10.437,-13.000,-0.13818,0.80908,0.29785,22.03
$IMU,40871.410,-26.977,-11.108,-12.145,-0.13134,0.80761,0.29833,22.03
$IMU,40871.412,-26.611,-11.413,-11.230,-0.11914,0.80322,0.29785,22.03
$IMU,40871.414,-26.000,-11.962,-10.375,-0.10888,0.78857,0.29541,22.03
$MAG,40871.415,-0.336,-0.436,-0.646,21.0
$IMU,40871.417,-25.329,-12.695,-9.521,-0.10400,0.78125,0.29541,22.07
$IMU,40871.419,-24.658,-13.061,-8.483,-0.09863,0.78759,0.29687,22.07
$IMU,40871.421,-23.864,-13.610,-7.507,-0.09619,0.78222,0.30126,22.07
$IMU,40871.424,-23.132,-13.916,-6.347,-0.08740,0.77392,0.30468,22.07
$MAG,40871.426,-0.334,-0.429,-0.652,21.3
$IMU,40871.426,-22.277,-14.221,-5.249,-0.08886,0.76513,0.30664,22.07
$IMU,40871.428,-21.423,-14.526,-4.028,-0.08398,0.75537,0.31152,22.07
$IMU,40871.431,-20.507,-14.953,-2.929,-0.08251,0.74951,0.31445,22.07
$IMU,40871.433,-19.653,-15.197,-1.831,-0.07861,0.74414,0.31933,22.07
$MAG,40871.436,-0.345,-0.427,-0.651,20.9
$IMU,40871.436,-18.798,-15.563,-0.793,-0.07617,0.74023,0.32177,22.05
$IMU,40871.438,-17.700,-15.991,0.122,-0.07031,0.73046,0.32324,22.05
$IMU,40871.440,-16.845,-15.991,1.037,-0.05810,0.72021,0.32373,22.05
$IMU,40871.443,-15.686,-16.357,1.892,-0.04589,0.71191,0.32177,22.05
$IMU,40871.445,-14.587,-16.357,2.563,-0.04248,0.71191,0.32324,22.05
$MAG,40871.446,-0.348,-0.427,-0.655,21.3
$IMU,40871.447,-13.183,-16.723,3.112,-0.03369,0.70898,0.32714,22.05
$IMU,40871.450,-12.023,-16.723,3.601,-0.02490,0.70654,0.32958,22.05
$IMU,40871.452,-10.620,-16.967,3.967,-0.01806,0.70996,0.32958,22.05
$IMU,40871.454,-9.277,-16.723,4.211,-0.00439,0.70507,0.33691,22.06
$MAG,40871.456,-0.340,-0.424,-0.654,20.9
$IMU,40871.457,-7.812,-16.601,4.333,0.00585,0.71044,0.34179,22.06
$IMU,40871.459,-6.469,-16.418,4.577,0.01953,0.71582,0.34814,22.06
$IMU,40871.461,-5.187,-16.235,4.821,0.02880,0.72070,0.34619,22.06
$IMU,40871.464,-3.723,-16.052,4.943,0.03759,0.72216,0.35009,22.06
$MAG,40871.466,-0.343,-0.435,-0.652,21.2
$IMU,40871.466,-2.319,-15.930,5.126,0.04492,0.73095,0.35351,22.06
$IMU,40871.468,-1.159,-15.563,5.310,0.04980,0.73681,0.35449,22.06
$IMU,40871.471,-0.061,-15.258,5.371,0.05468,0.74902,0.35937,22.06
$IMU,40871.473,0.976,-14.892,5.432,0.05761,0.75585,0.36230,22.08
$IMU,40871.475,2.136,-14.770,5.493,0.06103,0.76855,0.36474,22.08
$MAG,40871.476,-0.345,-0.427,-0.660,21.0
$IMU,40871.478,3.051,-14.648,5.493,0.05859,0.78173,0.36718,22.08
$IMU,40871.480,3.845,-14.404,5.554,0.06005,0.79443,0.36572,22.08
$IMU,40871.482,4.516,-14.221,5.676,0.05664,0.80615,0.36865,22.08
$IMU,40871.485,5.187,-13.854,5.676,0.06005,0.82275,0.37353,22.08
$MAG,40871.486,-0.348,-0.426,-0.654,21.2
$IMU,40871.487,5.920,-13.671,5.676,0.06250,0.83740,0.37402,22.08
$IMU,40871.489,6.408,-13.305,5.737,0.06640,0.85205,0.38134,22.08
$IMU,40871.492,6.958,-13.305,5.920,0.06787,0.86572,0.38574,22.07
$IMU,40871.494,7.324,-12.878,6.042,0.07910,0.88183,0.38867,22.07
$MAG,40871.496,-0.349,-0.427,-0.660,20.9
$IMU,40871.496,7.507,-12.451,6.103,0.08496,0.89355,0.38769,22.07
$IMU,40871.499,7.812,-11.840,6.347,0.09228,0.90625,0.39648,22.07
$IMU,40871.501,8.056,-11.352,6.530,0.09960,0.91552,0.39843,22.07
$BARO,40871.502,86906.55,22.72
$IMU,40871.504,8.239,-10.559,6.835,0.10302,0.92675,0.40234,22.07
$MAG,40871.506,-0.337,-0.427,-0.655,20.9
$IMU,40871.506,8.361,-10.070,7.263,0.10595,0.92968,0.40771,22.07
$IMU,40871.508,8.361,-9.521,7.812,0.11181,0.93212,0.40917,22.07
$IMU,40871.511,8.361,-9.033,8.422,0.11035,0.93164,0.41210,22.11
$IMU,40871.513,8.361,-8.544,9.094,0.10791,0.93408,0.41699,22.11
$IMU,40871.515,8.300,-8.178,9.643,0.09375,0.94873,0.42285,22.11
$MAG,40871.516,-0.352,-0.436,-0.646,21.0
$IMU,40871.518,8.056,-7.751,10.192,0.09033,0.96630,0.42578,22.11
$IMU,40871.520,7.751,-7.324,10.620,0.08544,0.97216,0.42333,22.11
$IMU,40871.522,7.507,-7.141,11.047,0.07910,0.98242,0.42333,22.11
$IMU,40871.525,7.080,-6.835,11.230,0.07519,0.98535,0.41894,22.11
$IMU,40871.527,6.835,-6.530,11.352,0.06787,0.99023,0.41455,22.11
$MAG,40871.526,-0.358,-0.424,-0.658,21.3
$IMU,40871.529,6.530,-6.286,11.291,0.06542,0.99023,0.41015,22.09
$IMU,40871.532,6.286,-6.164,11.230,0.05908,0.99023,0.40869,22.09
$IMU,40871.534,6.286,-6.164,11.047,0.05615,0.99316,0.40722,22.09
$MAG,40871.536,-0.348,-0.438,-0.652,21.0
$IMU,40871.536,6.103,-5.981,10.742,0.05126,0.98828,0.40917,22.09
$IMU,40871.539,6.225,-5.737,10.314,0.04833,0.97753,0.40917,22.09
$IMU,40871.541,6.225,-5.554,9.948,0.04931,0.96972,0.40771,22.09
$IMU,40871.543,6.286,-5.554,9.643,0.05126,0.96289,0.40820,22.09
$IMU,40871.546,6.408,-5.310,9.338,0.05859,0.95410,0.40966,22.09
$MAG,40871.547,-0.354,-0.429,-0.652,21.3
$IMU,40871.548,6.469,-5.432,9.155,0.05517,0.94677,0.40917,22.06
$IMU,40871.550,6.591,-5.249,9.094,0.05371,0.93994,0.40966,22.06
$IMU,40871.553,6.774,-5.432,8.850,0.05224,0.93505,0.40966,22.06
$IMU,40871.555,6.835,-5.310,8.850,0.05126,0.93652,0.40869,22.06
$MAG,40871.557,-0.352,-0.432,-0.649,20.9
$IMU,40871.557,6.958,-5.371,8.789,0.05322,0.93457,0.41015,22.06
$IMU,40871.560,7.080,-5.432,8.544,0.05224,0.93261,0.40869,22.06
$IMU,40871.562,7.385,-5.493,8.178,0.05908,0.93798,0.40869,22.06
$IMU,40871.565,7.751,-5.676,7.934,0.06445,0.93847,0.40869,22.06
$MAG,40871.567,-0.357,-0.436,-0.654,21.0
$IMU,40871.567,7.873,-5.554,7.507,0.06396,0.93457,0.40722,22.07
$IMU,40871.569,8.117,-5.249,7.019,0.06445,0.93457,0.40380,22.07
$IMU,40871.572,8.361,-5.126,6.469,0.06982,0.93066,0.40283,22.07
$IMU,40871.574,8.789,-5.126,5.981,0.06494,0.92724,0.40478,22.07
$IMU,40871.576,9.155,-4.882,5.432,0.06542,0.92626,0.40625,22.07
$MAG,40871.577,-0.361,-0.435,-0.651,21.0
$IMU,40871.579,9.582,-4.699,4.882,0.06640,0.92333,0.40527,22.07
$IMU,40871.581,10.009,-4.394,4.333,0.06494,0.91894,0.40527,22.07
$IMU,40871.583,10.375,-4.089,3.845,0.06298,0.91455,0.40869,22.07
$IMU,40871.586,10.803,-3.784,3.417,0.06494,0.91308,0.40722,22.10
$MAG,40871.587,-0.355,-0.432,-0.643,21.2
$IMU,40871.588,11.230,-3.540,2.990,0.06445,0.91162,0.40576,22.10
$IMU,40871.590,11.596,-3.234,2.624,0.06884,0.91308,0.40185,22.10
$IMU,40871.593,12.084,-2.929,2.197,0.07373,0.91503,0.40136,22.10
$IMU,40871.595,12.573,-2.685,1.953,0.07470,0.91992,0.40039,22.10
$MAG,40871.597,-0.361,-0.433,-0.655,21.2
$IMU,40871.597,12.878,-2.197,1.647,0.07617,0.92187,0.39843,22.10
$IMU,40871.600,13.183,-1.586,1.281,0.07617,0.92333,0.39794,22.10
$IMU,40871.602,13.488,-1.281,0.915,0.07714,0.93798,0.39794,22.10
$BARO,40871.603,86905.74,22.71
$IMU,40871.604,13.732,-0.976,0.671,0.07666,0.94482,0.39501,22.07
$MAG,40871.607,-0.363,-0.426,-0.646,21.2
$IMU,40871.607,13.977,-0.793,0.488,0.07958,0.95166,0.39746,22.07
$IMU,40871.609,14.038,-0.610,0.366,0.08056,0.96337,0.39746,22.07
$IMU,40871.611,13.977,-0.305,0.305,0.07714,0.96826,0.39892,22.07
$IMU,40871.614,13.854,-0.122,0.305,0.07373,0.97558,0.39843,22.07
$IMU,40871.616,13.916,0.000,0.366,0.06835,0.98730,0.39794,22.07
$MAG,40871.617,-0.351,-0.432,-0.648,20.9
$IMU,40871.618,13.732,0.061,0.366,0.06445,0.98730,0.39599,22.07
$IMU,40871.621,13.610,0.061,0.427,0.05859,0.98486,0.39306,22.07
$IMU,40871.623,13.427,0.305,0.610,0.04980,0.98974,0.39355,22.08
$IMU,40871.625,13.366,0.183,0.671,0.04003,0.99218,0.39306,22.08
$MAG,40871.627,-0.351,-0.444,-0.640,21.0
$IMU,40871.628,13.183,0.183,0.793,0.03125,0.99462,0.38769,22.08
$IMU,40871.630,13.122,0.000,0.976,0.02246,0.99658,0.38671,22.08
$IMU,40871.633,13.000,-0.366,1.098,0.01562,1.00195,0.38623,22.08
$IMU,40871.635,12.878,-0.549,1.403,0.01025,1.00830,0.38720,22.08
$MAG,40871.637,-0.355,-0.436,-0.640,21.0
$IMU,40871.637,12.634,-0.976,1.647,0.00683,1.00878,0.38818,22.08
$VBAT,40871.638,4.126
$IMU,40871.640,12.451,-1.098,1.953,0.00244,1.00830,0.38769,22.08
$IMU,40871.642,12.145,-1.342,2.319,-0.00195,1.00439,0.38330,22.10
$IMU,40871.644,11.901,-1.708,2.746,-0.00390,1.00683,0.38330,22.10
$MAG,40871.647,-0.360,-0.445,-0.642,21.0
$IMU,40871.647,11.779,-2.014,3.234,-0.00634,0.99707,0.38085,22.10
$IMU,40871.649,11.657,-2.380,3.601,-0.01123,0.99462,0.37744,22.10
$IMU,40871.651,11.596,-2.929,4.089,-0.01220,0.99121,0.37548,22.10
$IMU,40871.654,11.596,-3.479,4.516,-0.01953,0.98339,0.37402,22.10
$IMU,40871.656,11.474,-4.028,4.943,-0.02343,0.97314,0.37255,22.10
$MAG,40871.657,-0.355,-0.436,-0.639,21.2
$IMU,40871.658,11.413,-4.516,5.371,-0.02734,0.96679,0.37060,22.10
$IMU,40871.661,11.474,-5.249,5.798,-0.02978,0.95849,0.36767,22.10
$IMU,40871.663,11.535,-6.042,6.225,-0.03515,0.95410,0.36669,22.10
$IMU,40871.665,11.718,-6.774,6.591,-0.04150,0.95312,0.36230,22.10
$MAG,40871.667,-0.364,-0.438,-0.631,21.0
$IMU,40871.668,11.718,-7.263,6.835,-0.04394,0.94921,0.36425,22.10
$IMU,40871.670,11.901,-8.178,6.958,-0.04345,0.94482,0.36474,22.10
$IMU,40871.672,11.962,-9.033,7.019,-0.04003,0.94433,0.35888,22.10
$IMU,40871.675,12.084,-9.826,6.835,-0.04003,0.94580,0.35498,22.10
$IMU,40871.677,12.207,-10.498,6.469,-0.03125,0.94531,0.35595,22.10
$MAG,40871.678,-0.361,-0.441,-0.634,20.9
$IMU,40871.679,12.329,-11.047,6.042,-0.02832,0.94970,0.35302,22.08
$IMU,40871.682,12.512,-11.535,5.554,-0.01904,0.95214,0.35302,22.08
$IMU,40871.684,12.756,-12.023,5.004,-0.00537,0.95556,0.34960,22.08
$IMU,40871.686,12.756,-12.268,4.516,0.01416,0.95800,0.35156,22.08
$MAG,40871.688,-0.364,-0.441,-0.642,21.0
$IMU,40871.689,12.939,-12.512,4.089,0.03027,0.96484,0.35009,22.08
$IMU,40871.691,13.000,-13.000,3.845,0.04687,0.97412,0.35302,22.08
$IMU,40871.694,13.061,-12.939,3.417,0.06445,0.97998,0.35107,22.08
$IMU,40871.696,12.939,-12.939,3.051,0.07128,0.98144,0.35107,22.08
$MAG,40871.698,-0.363,-0.436,-0.634,21.0
$IMU,40871.698,12.817,-12.756,2.746,0.08251,0.98828,0.35449,22.09
$IMU,40871.701,12.756,-12.451,2.441,0.08886,0.99218,0.35302,22.09
$IMU,40871.703,12.573,-12.207,2.136,0.10009,0.98925,0.35009,22.09
$BARO,40871.705,86903.16,22.72
$IMU,40871.705,12.451,-11.962,1.770,0.10546,0.99121,0.35009,22.09
$MAG,40871.708,-0.363,-0.445,-0.636,21.0
$IMU,40871.708,12.329,-11.535,1.464,0.11035,0.99707,0.34863,22.09
$IMU,40871.710,12.145,-11.047,1.220,0.11376,1.00195,0.34863,22.09
$IMU,40871.712,11.962,-10.620,0.854,0.12060,1.00195,0.34912,22.09
$IMU,40871.715,11.779,-10.009,0.610,0.12304,1.00927,0.34472,22.09
$IMU,40871.717,11.535,-9.399,0.366,0.12353,1.01220,0.34423,22.11
$MAG,40871.718,-0.360,-0.441,-0.630,21.2
$IMU,40871.719,11.230,-8.850,0.183,0.12792,1.01464,0.34570,22.11
$IMU,40871.722,11.047,-8.239,-0.061,0.12890,1.01757,0.34912,22.11
$IMU,40871.724,10.742,-7.446,-0.061,0.12744,1.02685,0.34765,22.11
$IMU,40871.726,10.375,-6.774,-0.183,0.12988,1.02587,0.34912,22.11
$MAG,40871.728,-0.367,-0.447,-0.634,20.9
$IMU,40871.729,10.009,-6.164,0.000,0.12939,1.03173,0.35205,22.11
$IMU,40871.731,9.643,-5.493,0.183,0.12353,1.03857,0.35009,22.11
$IMU,40871.733,9.216,-4.760,0.427,0.12548,1.04150,0.35205,22.11
$IMU,40871.736,8.789,-4.089,0.793,0.11865,1.04345,0.34863,22.10
$MAG,40871.738,-0.367,-0.445,-0.633,20.9
$IMU,40871.738,8.361,-3.356,1.281,0.11474,1.04492,0.34960,22.10
$IMU,40871.740,7.934,-2.624,1.708,0.10839,1.04150,0.34863,22.10
$IMU,40871.743,7.385,-2.014,2.075,0.10107,1.03466,0.35107,22.10
$IMU,40871.745,7.019,-1.831,2.502,0.09228,1.03222,0.35107,22.10
$IMU,40871.747,6.652,-1.525,2.868,0.08203,1.03125,0.35009,22.10
$MAG,40871.748,-0.361,-0.448,-0.634,20.9
$IMU,40871.750,6.286,-1.037,3.112,0.07177,1.02929,0.34912,22.10
$IMU,40871.752,5.737,-0.671,3.295,0.05810,1.02636,0.34716,22.10
$IMU,40871.755,5.493,-0.549,3.417,0.05273,1.02392,0.34472,22.10
$IMU,40871.757,5.126,-0.488,3.417,0.04443,1.02148,0.34326,22.10
$MAG,40871.758,-0.366,-0.445,-0.628,21.2
$IMU,40871.759,4.943,-0.427,3.417,0.03857,1.01562,0.34179,22.10
$IMU,40871.762,4.638,-0.488,3.540,0.03320,1.01025,0.34375,22.10
$IMU,40871.764,4.638,-0.671,3.479,0.02880,1.00683,0.34326,22.10
$IMU,40871.766,4.394,-0.427,3.356,0.03027,1.00146,0.33886,22.10
$MAG,40871.768,-0.370,-0.445,-0.631,21.0
$IMU,40871.769,4.089,-0.366,3.356,0.02978,0.99609,0.33984,22.10
$IMU,40871.771,4.089,-0.549,3.295,0.02734,0.98535,0.34228,22.10
$IMU,40871.773,4.089,-0.671,3.173,0.02880,0.97265,0.34277,22.11
$IMU,40871.776,4.028,-0.732,3.173,0.02880,0.97021,0.33837,22.11
$MAG,40871.778,-0.369,-0.451,-0.633,20.9
$IMU,40871.778,3.967,-0.915,3.051,0.02636,0.96044,0.34082,22.11
$IMU,40871.780,3.967,-1.159,2.990,0.02880,0.95117,0.33886,22.11
$IMU,40871.783,3.906,-1.037,3.051,0.03076,0.94921,0.33789,22.11
$IMU,40871.785,3.967,-1.220,2.868,0.02636,0.94677,0.33691,22.11
$IMU,40871.787,4.211,-1.708,2.746,0.02539,0.94189,0.33691,22.11
$MAG,40871.788,-0.372,-0.450,-0.625,21.0
$IMU,40871.790,4.211,-1.770,2.685,0.02587,0.93603,0.33642,22.11
$IMU,40871.792,4.394,-2.136,2.563,0.02246,0.93359,0.33007,22.09
$IMU,40871.794,4.455,-2.197,2.380,0.02246,0.93701,0.33056,22.09
$IMU,40871.797,4.516,-2.441,2.258,0.02343,0.93115,0.32763,22.09
$MAG,40871.799,-0.367,-0.441,-0.634,21.4
$IMU,40871.799,4.577,-2.563,2.258,0.02246,0.93457,0.32568,22.09
$IMU,40871.801,4.821,-2.868,2.258,0.02246,0.93945,0.32324,22.09
$IMU,40871.804,5.126,-3.295,2.319,0.01953,0.94335,0.32128,22.09
$BARO,40871.806,86895.99,22.71
$IMU,40871.806,5.187,-3.417,2.319,0.01708,0.94238,0.31787,22.09
$IMU,40871.808,5.187,-3.417,2.502,0.01562,0.94238,0.31738,22.09
$MAG,40871.809,-0.366,-0.442,-0.633,20.9
$IMU,40871.811,5.249,-3.662,2.563,0.01513,0.94189,0.32031,22.09
$IMU,40871.813,5.187,-3.784,2.868,0.01123,0.93945,0.32031,22.09
$IMU,40871.815,5.371,-4.211,3.112,0.01123,0.94433,0.31835,22.09
$IMU,40871.818,5.432,-4.516,3.417,0.01025,0.94580,0.32519,22.09
$MAG,40871.819,-0.370,-0.451,-0.625,21.2
$IMU,40871.820,5.432,-4.760,3.662,0.01611,0.95263,0.32470,22.09
$IMU,40871.823,5.371,-4.882,4.028,0.02099,0.95507,0.32226,22.09
$IMU,40871.825,5.249,-4.943,4.333,0.02929,0.95556,0.32177,22.09
$IMU,40871.827,5.310,-5.004,4.699,0.03613,0.95507,0.32373,22.09
$IMU,40871.830,5.310,-5.126,5.065,0.04882,0.95605,0.32177,22.08
$MAG,40871.829,-0.366,-0.450,-0.634,21.4
$IMU,40871.832,5.249,-5.004,5.371,0.05810,0.95214,0.32324,22.08
$IMU,40871.834,5.310,-5.004,5.676,0.06298,0.95019,0.32666,22.08
$IMU,40871.837,5.371,-4.821,5.981,0.07275,0.94873,0.32617,22.08
$MAG,40871.839,-0.373,-0.451,-0.633,20.9
$IMU,40871.839,5.310,-4.516,6.469,0.07714,0.94726,0.32373,22.08
$IMU,40871.841,5.493,-4.394,6.713,0.08203,0.94238,0.32275,22.08
$IMU,40871.844,5.615,-4.150,6.958,0.08886,0.94335,0.32373,22.08
$IMU,40871.846,5.859,-3.906,7.202,0.09472,0.94433,0.32861,22.08
$IMU,40871.848,6.042,-3.662,7.446,0.10156,0.94824,0.32910,22.09
$MAG,40871.849,-0.370,-0.447,-0.636,21.0
$IMU,40871.851,6.042,-3.112,7.629,0.10009,0.94287,0.32812,22.09
$IMU,40871.853,6.286,-2.746,7.812,0.10595,0.94677,0.32861,22.09
$IMU,40871.855,6.286,-2.441,7.995,0.10986,0.95068,0.32910,22.09
$IMU,40871.858,6.408,-2.197,8.178,0.11083,0.95654,0.33056,22.09
$MAG,40871.859,-0.373,-0.442,-0.633,21.3
$IMU,40871.860,6.530,-1.953,8.300,0.11083,0.95800,0.33105,22.09
$IMU,40871.862,6.469,-1.708,8.422,0.10888,0.96826,0.32861,22.09
$IMU,40871.865,6.469,-1.525,8.422,0.10400,0.97265,0.33154,22.09
$IMU,40871.867,6.347,-1.098,8.483,0.09960,0.97900,0.33398,22.13
$MAG,40871.869,-0.364,-0.448,-0.631,21.0
$IMU,40871.869,6.347,-1.159,8.422,0.09277,0.98339,0.33349,22.13
$IMU,40871.872,6.286,-1.220,8.361,0.09179,0.98632,0.32861,22.13
$IMU,40871.874,6.225,-1.281,8.178,0.08935,0.98974,0.32958,22.13
$IMU,40871.876,6.164,-1.281,7.995,0.08496,0.98339,0.32617,22.13
$IMU,40871.879,6.103,-1.342,7.690,0.07910,0.98583,0.32666,22.13
$MAG,40871.879,-0.382,-0.451,-0.624,20.9
$IMU,40871.881,5.920,-1.281,7.446,0.08056,0.98828,0.32861,22.13
$IMU,40871.884,5.859,-1.525,7.263,0.07958,0.99316,0.32519,22.13
$IMU,40871.886,5.859,-1.525,7.019,0.08056,0.99462,0.32861,22.09
$IMU,40871.888,5.798,-1.831,6.774,0.08300,1.00048,0.33105,22.09
$MAG,40871.889,-0.373,-0.445,-0.624,21.2
$IMU,40871.891,5.554,-1.770,6.591,0.08203,1.00341,0.32910,22.09
$IMU,40871.893,5.371,-1.770,6.530,0.08837,1.00683,0.33154,22.09
$IMU,40871.895,5.249,-1.770,6.347,0.08886,1.00048,0.33300,22.09
$IMU,40871.898,5.004,-1.892,6.164,0.09375,1.00048,0.33593,22.09
$MAG,40871.899,-0.370,-0.454,-0.628,21.0
$IMU,40871.900,4.760,-1.892,6.042,0.09814,0.99414,0.33203,22.09
$IMU,40871.902,4.699,-2.075,5.798,0.10058,0.99414,0.33593,22.09
$IMU,40871.905,4.577,-2.136,5.615,0.10888,0.99121,0.34130,22.12
$IMU,40871.907,4.516,-1.953,5.371,0.11279,0.98242,0.33496,22.12
$BARO,40871.908,86902.70,22.72
$IMU,40871.909,4.455,-1.892,4.943,0.11865,0.97753,0.33593,22.12
$MAG,40871.910,-0.375,-0.444,-0.625,21.0
$IMU,40871.912,4.455,-1.892,4.394,0.12353,0.97216,0.33056,22.12
$IMU,40871.914,4.638,-1.892,3.845,0.12890,0.96728,0.33105,22.12
$IMU,40871.916,4.699,-1.647,3.234,0.13183,0.96289,0.32861,22.12
$IMU,40871.919,4.882,-1.647,2.624,0.13574,0.95849,0.32470,22.12
$MAG,40871.920,-0.379,-0.450,-0.636,21.0
$IMU,40871.921,5.004,-1.403,1.831,0.13574,0.95751,0.32568,22.12
$IMU,40871.923,5.126,-1.098,1.037,0.14599,0.95947,0.32763,22.11
$IMU,40871.926,5.310,-0.732,0.183,0.14648,0.96093,0.32714,22.11
$IMU,40871.928,5.615,-0.732,-0.610,0.14697,0.96435,0.32763,22.11
$MAG,40871.930,-0.378,-0.447,-0.630,21.0
$IMU,40871.930,5.798,-0.366,-1.342,0.14990,0.96972,0.32714,22.11
$IMU,40871.933,5.859,-0.183,-2.075,0.15136,0.97558,0.32373,22.11
$IMU,40871.935,5.920,0.244,-2.746,0.14892,0.98095,0.32373,22.11
$IMU,40871.937,6.042,0.488,-3.417,0.14501,0.98291,0.32324,22.11
$MAG,40871.940,-0.373,-0.442,-0.627,21.2
$IMU,40871.940,6.103,0.671,-4.089,0.14453,0.98339,0.32128,22.11
$IMU,40871.942,6.225,0.854,-4.760,0.13964,0.98730,0.32080,22.13
$IMU,40871.944,6.225,1.098,-5.310,0.13574,0.98779,0.31982,22.13
$IMU,40871.947,6.408,1.220,-6.042,0.12988,0.97949,0.31787,22.13
$IMU,40871.949,6.408,1.464,-6.713,0.12207,0.97802,0.31640,22.13
$HUM,40871.950,41.5,23.0
$MAG,40871.950,-0.376,-0.444,-0.628,21.0
$IMU,40871.952,6.591,1.586,-7.385,0.11669,0.97851,0.31152,22.13
$IMU,40871.954,6.713,1.892,-7.995,0.11279,0.97558,0.30908,22.13
$IMU,40871.956,6.896,2.075,-8.605,0.10742,0.97656,0.30517,22.13
$IMU,40871.959,7.202,2.075,-9.155,0.10107,0.97607,0.30761,22.13
$MAG,40871.960,-0.373,-0.454,-0.619,21.3
$IMU,40871.961,7.324,2.197,-9.582,0.09228,0.97753,0.30908,22.10
$IMU,40871.963,7.324,2.441,-9.887,0.08349,0.98144,0.30615,22.10
$IMU,40871.966,7.385,2.563,-10.131,0.07666,0.98681,0.30371,22.10
$IMU,40871.968,7.324,2.563,-10.253,0.06835,0.99902,0.30224,22.10
$MAG,40871.970,-0.376,-0.448,-0.618,21.2
$IMU,40871.970,7.324,2.258,-10.192,0.05371,1.00585,0.30615,22.10
$IMU,40871.973,7.263,2.075,-10.192,0.03662,1.01367,0.30566,22.10
$IMU,40871.975,7.019,1.953,-10.131,0.02294,1.02148,0.30664,22.10
$IMU,40871.977,6.774,1.647,-10.070,0.01171,1.03076,0.30615,22.10
$MAG,40871.980,-0.375,-0.462,-0.627,20.9
$IMU,40871.980,6.408,1.342,-9.948,0.00146,1.03417,0.30517,22.09
$IMU,40871.982,6.103,0.976,-9.887,-0.00488,1.03759,0.30371,22.09
$IMU,40871.984,5.859,0.549,-9.582,-0.00976,1.04199,0.30273,22.09
$IMU,40871.987,5.493,0.122,-9.338,-0.00781,1.04296,0.30273,22.09
$IMU,40871.989,5.187,-0.122,-9.033,-0.00878,1.04052,0.30029,22.09
$MAG,40871.990,-0.375,-0.456,-0.628,21.0
$IMU,40871.991,4.821,-0.366,-8.666,-0.00585,1.03662,0.29833,22.09
$IMU,40871.994,4.516,-0.549,-8.422,-0.00048,1.03125,0.29931,22.09
$IMU,40871.996,4.333,-0.732,-8.117,0.00195,1.02636,0.30273,22.09
$IMU,40871.998,4.211,-0.854,-7.873,0.01025,1.01806,0.30468,22.11
$MAG,40872.000,-0.369,-0.454,-0.612,21.4
$IMU,40872.001,4.089,-0.793,-7.751,0.01953,1.00732,0.30419,22.11
$IMU,40872.003,4.211,-0.854,-7.568,0.02685,0.99511,0.30566,22.11
$IMU,40872.005,4.150,-0.610,-7.324,0.03613,0.98095,0.30566,22.11
$IMU,40872.008,4.089,-0.244,-6.958,0.04687,0.97314,0.30712,22.11
$BARO,40872.010,86890.22,22.72
$MAG,40872.010,-0.370,-0.450,-0.622,21.2
$IMU,40872.010,4.272,0.000,-6.652,0.05566,0.96728,0.30712,22.11
$IMU,40872.013,4.455,0.000,-6.225,0.06738,0.96191,0.30712,22.11
$IMU,40872.015,4.577,0.244,-5.920,0.07275,0.95849,0.30859,22.11
$IMU,40872.017,4.760,0.549,-5.615,0.07861,0.95703,0.31005,22.15
$MAG,40872.020,-0.363,-0.453,-0.615,21.2
$IMU,40872.020,4.943,0.854,-5.432,0.08496,0.95800,0.31054,22.15
$IMU,40872.022,5.004,1.342,-5.432,0.08496,0.95751,0.31201,22.15
$IMU,40872.024,5.187,1.831,-5.432,0.08544,0.95703,0.30908,22.15
$IMU,40872.027,5.554,2.014,-5.554,0.08007,0.95849,0.30615,22.15
$IMU,40872.029,5.859,2.258,-5.737,0.07763,0.95458,0.30664,22.15
$MAG,40872.030,-0.376,-0.448,-0.624,21.0
$IMU,40872.031,6.103,2.746,-5.981,0.08007,0.95361,0.30371,22.15
$IMU,40872.034,6.408,3.051,-6.103,0.08007,0.94970,0.30517,22.15
$IMU,40872.036,6.713,3.356,-6.347,0.08105,0.95019,0.30566,22.10
$IMU,40872.038,7.019,3.784,-6.469,0.08251,0.95458,0.30517,22.10
$MAG,40872.041,-0.369,-0.457,-0.616,21.0
$IMU,40872.041,7.324,4.028,-6.591,0.08154,0.95312,0.30810,22.10
$IMU,40872.043,7.629,4.272,-6.591,0.07568,0.95605,0.30859,22.10
$IMU,40872.045,7.934,4.394,-6.530,0.07470,0.96142,0.30810,22.10
$IMU,40872.048,8.117,4.577,-6.469,0.06982,0.96044,0.31152,22.10
$IMU,40872.050,8.300,4.699,-6.408,0.06298,0.95947,0.30810,22.10
$MAG,40872.051,-0.367,-0.465,-0.616,21.2
$IMU,40872.052,8.483,4.760,-6.286,0.05566,0.96044,0.30712,22.10
$IMU,40872.055,8.544,4.821,-6.164,0.04931,0.96191,0.30517,22.10
$IMU,40872.057,8.666,4.821,-6.103,0.04394,0.96386,0.30468,22.10
$IMU,40872.059,8.789,4.638,-6.164,0.04638,0.96582,0.30224,22.10
$MAG,40872.061,-0.364,-0.456,-0.616,21.2
$IMU,40872.062,8.972,4.699,-6.164,0.04296,0.97070,0.29931,22.10
$IMU,40872.064,9.094,4.638,-6.164,0.03955,0.96533,0.29785,22.10
$IMU,40872.066,9.338,4.455,-6.286,0.04248,0.96435,0.29492,22.10
$IMU,40872.069,9.521,4.333,-6.347,0.03808,0.96435,0.29443,22.10
$MAG,40872.071,-0.364,-0.460,-0.616,21.2
$IMU,40872.071,9.887,4.333,-6.408,0.03759,0.95800,0.29248,22.10
$IMU,40872.073,10.192,4.211,-6.408,0.03808,0.95556,0.29345,22.10
$IMU,40872.076,10.437,4.150,-6.469,0.03515,0.94970,0.29248,22.10
$IMU,40872.078,10.742,4.150,-6.408,0.03564,0.94482,0.29003,22.10
$MAG,40872.081,-0.367,-0.459,-0.613,21.4
$IMU,40872.081,11.108,4.089,-6.408,0.03466,0.94189,0.28906,22.10
$IMU,40872.083,11.535,4.028,-6.225,0.03466,0.93896,0.29003,22.10
$IMU,40872.085,11.962,3.845,-6.042,0.03613,0.93652,0.28906,22.10
$IMU,40872.088,12.512,3.723,-5.920,0.03466,0.93603,0.28662,22.10
$IMU,40872.090,12.878,3.784,-5.737,0.03417,0.93261,0.28417,22.10
$MAG,40872.091,-0.363,-0.457,-0.613,21.2
$IMU,40872.092,13.305,3.662,-5.554,0.03271,0.93408,0.28125,22.11
$IMU,40872.095,13.854,3.540,-5.432,0.03320,0.93212,0.28369,22.11
$IMU,40872.097,14.404,3.356,-5.187,0.02783,0.93310,0.28125,22.11
$IMU,40872.099,14.831,3.051,-5.065,0.02685,0.93066,0.27929,22.11
$MAG,40872.101,-0.366,-0.466,-0.618,21.5
$IMU,40872.102,15.319,2.868,-4.821,0.02734,0.93212,0.27978,22.11
$IMU,40872.104,15.686,2.563,-4.638,0.02783,0.93457,0.27734,22.11
$IMU,40872.106,16.052,2.441,-4.516,0.02050,0.93847,0.27832,22.11
$IMU,40872.109,16.357,2.075,-4.272,0.01660,0.94091,0.27636,22.11
$BARO,40872.111,86908.89,22.72
$MAG,40872.111,-0.367,-0.463,-0.612,21.0
$IMU,40872.111,16.784,1.770,-3.967,0.01513,0.94726,0.27294,22.11
$IMU,40872.113,16.967,1.464,-3.845,0.01171,0.94580,0.27441,22.11
$IMU,40872.116,17.272,1.220,-3.662,0.00976,0.94677,0.27197,22.11
$IMU,40872.118,17.517,0.915,-3.479,0.00976,0.94677,0.27099,22.11
$IMU,40872.120,17.700,0.671,-3.234,0.01171,0.95117,0.27050,22.11
$MAG,40872.121,-0.366,-0.460,-0.613,21.5
$IMU,40872.123,17.944,0.488,-2.990,0.01269,0.95019,0.27246,22.11
$IMU,40872.125,18.188,0.244,-2.563,0.01611,0.95117,0.26806,22.11
$IMU,40872.127,18.371,-0.061,-2.075,0.01318,0.95019,0.26757,22.11
$IMU,40872.130,18.432,-0.183,-1.647,0.01220,0.94824,0.26513,22.10
$MAG,40872.131,-0.363,-0.460,-0.612,20.9
$IMU,40872.132,18.676,-0.549,-1.098,0.01074,0.94970,0.26513,22.10
$IMU,40872.134,18.737,-0.854,-0.549,0.01025,0.94775,0.26220,22.10
$IMU,40872.137,18.920,-1.037,-0.061,0.01025,0.94628,0.26025,22.10
$IMU,40872.139,19.042,-1.281,0.366,0.00439,0.94628,0.25732,22.10
$MAG,40872.141,-0.367,-0.466,-0.610,21.4
$IMU,40872.142,19.287,-1.525,0.671,0.00976,0.94335,0.25976,22.10
$IMU,40872.144,19.592,-1.831,0.854,0.00683,0.94433,0.25292,22.10
$IMU,40872.146,19.714,-1.953,1.220,0.01171,0.94580,0.25000,22.10
$IMU,40872.149,19.897,-1.953,1.403,0.01513,0.94433,0.24707,22.12
$MAG,40872.151,-0.366,-0.469,-0.604,21.2
$IMU,40872.151,20.141,-2.075,1.525,0.02148,0.94921,0.24365,22.12
$IMU,40872.153,20.385,-2.258,1.586,0.03125,0.95068,0.24365,22.12
$IMU,40872.156,20.568,-2.380,1.770,0.03417,0.94921,0.24169,22.12
$IMU,40872.158,20.874,-2.502,1.831,0.03417,0.94873,0.23974,22.12
$IMU,40872.160,20.996,-2.502,1.831,0.04394,0.95556,0.23925,22.12
$MAG,40872.161,-0.363,-0.463,-0.607,21.2
$IMU,40872.163,20.996,-2.319,1.953,0.04931,0.95898,0.23876,22.12
$IMU,40872.165,20.996,-2.319,2.075,0.05468,0.96142,0.23486,22.12
$IMU,40872.167,21.118,-2.319,2.014,0.05761,0.97070,0.22900,22.05
$IMU,40872.170,21.179,-2.319,2.014,0.06201,0.97851,0.22900,22.05
$MAG,40872.172,-0.363,-0.468,-0.609,21.3
$IMU,40872.172,21.179,-2.441,2.075,0.06054,0.98632,0.22900,22.05
$IMU,40872.174,21.118,-2.380,2.075,0.06298,0.99414,0.22656,22.05
$IMU,40872.177,20.874,-2.197,2.136,0.06396,1.00244,0.22607,22.05
$IMU,40872.179,20.690,-2.197,2.197,0.06298,1.00976,0.22265,22.05
$IMU,40872.181,20.446,-2.258,2.136,0.05957,1.01464,0.22607,22.05
$MAG,40872.182,-0.372,-0.469,-0.603,21.5
$IMU,40872.184,20.202,-2.258,2.197,0.05468,1.01513,0.22802,22.05
$IMU,40872.186,19.958,-2.441,2.197,0.04589,1.01611,0.22607,22.10
$IMU,40872.188,19.775,-2.502,2.136,0.03466,1.02099,0.22412,22.10
$IMU,40872.191,19.592,-2.685,2.136,0.03173,1.01660,0.22119,22.10
$MAG,40872.192,-0.360,-0.468,-0.603,21.2
$IMU,40872.193,19.226,-2.685,2.075,0.02685,1.01025,0.21826,22.10
$IMU,40872.195,19.226,-2.990,2.014,0.02539,1.00146,0.21875,22.10
$IMU,40872.198,19.287,-3.173,1.953,0.02539,0.99804,0.21093,22.10
$IMU,40872.200,19.287,-3.234,1.831,0.02539,0.98925,0.20849,22.10
$MAG,40872.202,-0.366,-0.474,-0.597,21.3
$IMU,40872.202,19.348,-3.295,1.647,0.02441,0.98681,0.20751,22.10
$IMU,40872.205,19.531,-3.417,1.464,0.02343,0.98388,0.20507,22.08
$IMU,40872.207,19.775,-3.356,1.281,0.02783,0.97998,0.20605,22.08
$IMU,40872.210,19.958,-3.417,0.915,0.03613,0.97851,0.20166,22.08
$MAG,40872.212,-0.369,-0.477,-0.598,21.3
$IMU,40872.212,20.324,-3.540,0.671,0.04833,0.97265,0.20117,22.08
$BARO,40872.213,86905.89,22.72
$IMU,40872.214,20.568,-3.540,0.488,0.05712,0.96582,0.20117,22.08
$IMU,40872.217,20.812,-3.479,0.244,0.06250,0.96777,0.20117,22.08
$IMU,40872.219,20.996,-3.540,0.000,0.06298,0.96777,0.19580,22.08
$IMU,40872.221,21.240,-3.417,-0.183,0.06298,0.96337,0.19628,22.08
$MAG,40872.222,-0.364,-0.477,-0.594,21.0
$IMU,40872.224,21.606,-3.356,-0.366,0.06250,0.96435,0.19628,22.13
$IMU,40872.226,21.911,-3.479,-0.732,0.06103,0.96142,0.19580,22.13
$IMU,40872.228,22.338,-3.662,-0.976,0.05468,0.96142,0.19335,22.13
$IMU,40872.231,22.705,-3.723,-1.281,0.05175,0.95751,0.19238,22.13
$MAG,40872.232,-0.363,-0.477,-0.597,21.4
$IMU,40872.233,23.010,-3.784,-1.647,0.05371,0.95751,0.19140,22.13
$IMU,40872.235,23.376,-3.906,-1.892,0.04882,0.95703,0.18896,22.13
$IMU,40872.238,23.742,-3.967,-2.197,0.04687,0.95507,0.18994,22.13
$IMU,40872.240,24.169,-4.028,-2.502,0.04736,0.95556,0.19238,22.13
$MAG,40872.242,-0.367,-0.475,-0.585,21.3
$IMU,40872.242,24.475,-4.272,-2.685,0.04638,0.95654,0.18945,22.05
$IMU,40872.245,24.780,-4.455,-2.868,0.04150,0.96386,0.19091,22.05
$IMU,40872.247,25.024,-4.394,-2.990,0.04296,0.97314,0.19384,22.05
$IMU,40872.249,25.146,-4.394,-3.051,0.04003,0.97607,0.19433,22.05
$MAG,40872.252,-0.363,-0.475,-0.589,20.9
$IMU,40872.252,25.329,-4.577,-3.051,0.04003,0.98291,0.19580,22.05
$IMU,40872.254,25.512,-4.699,-3.112,0.03564,0.98535,0.19433,22.05
$IMU,40872.256,25.512,-4.760,-3.051,0.03173,0.99316,0.19726,22.05
$IMU,40872.259,25.634,-4.882,-2.868,0.03027,0.99316,0.19335,22.05
$IMU,40872.261,25.451,-4.943,-2.685,0.02685,0.99707,0.19238,22.14
$MAG,40872.262,-0.366,-0.477,-0.589,21.4
$IMU,40872.263,25.390,-5.004,-2.624,0.01562,0.99707,0.19140,22.14
$IMU,40872.266,25.268,-5.187,-2.319,0.00585,1.00000,0.19287,22.14
$IMU,40872.268,25.329,-5.493,-2.075,0.00146,0.99853,0.19335,22.14
$IMU,40872.271,25.146,-5.737,-1.953,-0.00292,1.00000,0.18847,22.14
$MAG,40872.272,-0.376,-0.481,-0.582,21.2
$IMU,40872.273,24.963,-5.798,-1.708,-0.00390,1.00341,0.18457,22.14
$IMU,40872.275,24.902,-5.920,-1.525,-0.00927,0.99853,0.18164,22.14
$IMU,40872.278,24.841,-6.164,-1.098,-0.01318,0.99853,0.17871,22.14
$IMU,40872.280,24.719,-6.347,-0.732,-0.01855,0.99951,0.17431,22.13
$MAG,40872.282,-0.373,-0.483,-0.586,21.4
$IMU,40872.282,24.658,-6.774,-0.366,-0.01855,1.00390,0.17138,22.13
$IMU,40872.285,24.536,-7.080,0.000,-0.02099,1.01123,0.17138,22.13
$IMU,40872.287,24.353,-7.385,0.427,-0.01904,1.02294,0.17041,22.13
$IMU,40872.289,23.986,-7.629,0.854,-0.01562,1.02685,0.17529,22.13
$IMU,40872.292,23.620,-7.934,1.159,-0.00537,1.03417,0.17871,22.13
$MAG,40872.293,-0.364,-0.480,-0.585,21.0
$IMU,40872.294,23.254,-8.300,1.525,0.00537,1.04296,0.18212,22.13
$IMU,40872.296,22.644,-8.361,1.770,0.02001,1.04931,0.18066,22.13
$IMU,40872.299,22.216,-8.422,2.014,0.03369,1.05273,0.17724,22.13
$IMU,40872.301,21.667,-8.422,2.075,0.05273,1.05224,0.17724,22.13
$MAG,40872.303,-0.370,-0.481,-0.577,21.0
$IMU,40872.303,21.240,-8.361,2.136,0.06640,1.05029,0.17626,22.13
$IMU,40872.306,20.690,-8.056,2.014,0.07617,1.04980,0.17919,22.13
$IMU,40872.308,20.385,-7.812,2.136,0.09277,1.05126,0.17285,22.13
$IMU,40872.310,19.958,-7.263,2.075,0.10546,1.04052,0.17773,22.13
$MAG,40872.313,-0.378,-0.486,-0.577,21.0
$IMU,40872.313,19.592,-6.958,2.014,0.11474,1.03613,0.18017,22.13
$BARO,40872.314,86904.65,22.72
$IMU,40872.315,19.165,-6.225,1.953,0.12353,1.03271,0.17871,22.13
$IMU,40872.317,18.859,-5.676,1.953,0.13085,1.02148,0.17529,22.11
$IMU,40872.320,18.554,-5.187,2.014,0.13330,1.02343,0.17529,22.11
$IMU,40872.322,18.188,-4.333,2.014,0.13623,1.02197,0.17333,22.11
$MAG,40872.323,-0.372,-0.490,-0.580,21.3
$IMU,40872.324,18.005,-3.845,1.892,0.13671,1.01806,0.17187,22.11
$IMU,40872.327,17.883,-3.295,1.770,0.14306,1.01318,0.16796,22.11
$IMU,40872.329,17.700,-2.685,1.831,0.18115,1.00146,0.15429,22.11
$IMU,40872.331,17.639,-1.831,2.197,0.21972,0.98583,0.16015,22.11
$MAG,40872.333,-0.375,-0.501,-0.574,21.5
$IMU,40872.334,17.578,-1.220,2.624,0.21093,0.96777,0.15820,22.11
$IMU,40872.336,17.578,-0.122,2.807,0.18603,0.96386,0.15234,22.14
$IMU,40872.339,17.639,0.793,2.807,0.16064,0.96484,0.15234,22.14
$IMU,40872.341,17.883,1.647,2.441,0.13867,0.97509,0.15869,22.14
$MAG,40872.343,-0.372,-0.493,-0.580,21.4
$IMU,40872.343,17.944,2.380,1.953,0.12597,0.99560,0.15869,22.14
$IMU,40872.346,17.883,3.051,1.403,0.11914,1.00488,0.15527,22.14
$IMU,40872.348,17.761,3.601,0.976,0.12109,1.01953,0.14892,22.14
$IMU,40872.350,17.822,3.845,0.488,0.12011,1.02734,0.14062,22.14
$MAG,40872.353,-0.372,-0.487,-0.579,21.4
$IMU,40872.353,17.822,4.211,-0.061,0.11572,1.03369,0.14160,22.14
$IMU,40872.355,17.578,4.577,-0.732,0.09863,1.03466,0.12841,22.13
$IMU,40872.357,17.761,4.760,-1.464,0.08251,1.03125,0.12109,22.13
$IMU,40872.360,18.005,4.943,-2.258,0.06884,1.02490,0.11328,22.13
$IMU,40872.362,18.127,5.187,-3.479,0.05615,1.04199,0.13085,22.13
$MAG,40872.363,-0.372,-0.486,-0.570,21.3
$IMU,40872.364,18.005,5.615,-4.516,0.05371,1.03906,0.12597,22.13
$IMU,40872.367,18.005,5.554,-5.249,0.05126,1.03173,0.12158,22.13
$IMU,40872.369,17.944,5.310,-5.981,0.04785,1.04003,0.12548,22.13
$IMU,40872.371,17.517,5.310,-6.469,0.03906,1.05468,0.13232,22.13
$MAG,40872.373,-0.384,-0.493,-0.564,21.2
$IMU,40872.374,17.028,5.065,-6.896,0.02441,1.06005,0.12988,22.15
$IMU,40872.376,16.601,4.516,-7.202,0.00195,1.05468,0.12402,22.15
$IMU,40872.378,16.235,4.028,-7.629,-0.02343,1.05859,0.12451,22.15
$IMU,40872.381,15.747,3.356,-8.178,-0.03759,1.06640,0.12451,22.15
$MAG,40872.383,-0.373,-0.499,-0.568,21.3
$IMU,40872.383,15.441,2.441,-8.666,-0.05224,1.05126,0.10498,22.15
$IMU,40872.385,15.197,1.708,-9.277,-0.06591,1.04589,0.10888,22.15
$IMU,40872.388,14.770,1.159,-9.765,-0.06933,1.05029,0.11279,22.15
$IMU,40872.390,14.465,0.366,-10.192,-0.07324,1.03417,0.10595,22.15
$IMU,40872.392,14.343,-0.610,-10.559,-0.07910,1.03173,0.10351,22.14
$MAG,40872.393,-0.372,-0.489,-0.558,21.4
$IMU,40872.395,14.099,-1.342,-10.803,-0.08593,1.03027,0.10644,22.14
$IMU,40872.397,13.854,-2.136,-11.047,-0.09033,1.02929,0.11181,22.14
$IMU,40872.400,13.671,-2.868,-11.291,-0.08886,1.03271,0.11132,22.14
$IMU,40872.402,13.366,-3.540,-11.352,-0.08593,1.02929,0.11376,22.14
$MAG,40872.403,-0.370,-0.490,-0.567,20.9
$IMU,40872.404,13.000,-4.150,-11.291,-0.08251,1.02880,0.11425,22.14
$IMU,40872.407,12.634,-4.882,-11.169,-0.07812,1.03369,0.11474,22.14
$IMU,40872.409,12.207,-5.554,-10.925,-0.07275,1.03125,0.11962,22.14
$IMU,40872.411,11.779,-6.103,-10.620,-0.06445,1.02734,0.12402,22.11
$MAG,40872.413,-0.361,-0.489,-0.570,21.0
$IMU,40872.414,11.352,-6.591,-10.192,-0.06152,1.02832,0.12695,22.11
$BARO,40872.416,86899.06,22.72
$IMU,40872.416,10.864,-7.019,-9.887,-0.05517,1.03076,0.13134,22.11
$IMU,40872.418,10.375,-7.507,-9.521,-0.05224,1.02587,0.13330,22.11
$IMU,40872.421,9.948,-7.690,-9.155,-0.04541,1.02880,0.14013,22.11
$IMU,40872.423,9.460,-7.873,-8.789,-0.03222,1.03515,0.14746,22.11
$MAG,40872.424,-0.369,-0.492,-0.562,21.5
$IMU,40872.425,8.850,-7.873,-8.483,-0.01708,1.03857,0.15087,22.11
$IMU,40872.428,8.300,-7.812,-8.178,-0.00097,1.04199,0.16015,22.11
$IMU,40872.430,7.690,-7.568,-7.995,0.01562,1.03955,0.16503,22.14
$IMU,40872.432,7.080,-7.141,-7.690,0.03369,1.03613,0.16601,22.14
$MAG,40872.434,-0.375,-0.505,-0.573,20.9
$IMU,40872.435,6.469,-6.469,-7.629,0.05078,1.03564,0.17382,22.14
$IMU,40872.437,5.981,-5.859,-7.629,0.06494,1.03125,0.17382,22.14
$IMU,40872.439,5.493,-5.126,-7.568,0.07958,1.02246,0.17871,22.14
$IMU,40872.442,5.065,-4.150,-7.324,0.09472,1.01220,0.17822,22.14
$MAG,40872.444,-0.378,-0.498,-0.561,21.3
$IMU,40872.444,4.821,-3.295,-7.141,0.11083,0.99804,0.18066,22.14
$IMU,40872.446,4.333,-2.197,-6.835,0.12548,0.98632,0.18505,22.14
$IMU,40872.449,3.967,-1.159,-6.347,0.13476,0.97656,0.18408,22.15
$IMU,40872.451,3.662,-0.183,-5.859,0.14013,0.96777,0.18701,22.15
$IMU,40872.453,3.356,0.732,-5.432,0.13671,0.95458,0.18115,22.15
$MAG,40872.454,-0.369,-0.489,-0.561,21.2
$IMU,40872.456,3.112,1.831,-5.126,0.12841,0.95214,0.17968,22.15
$IMU,40872.458,2.929,2.990,-4.821,0.11425,0.94091,0.17089,22.15
$IMU,40872.460,2.868,4.028,-4.699,0.10058,0.93554,0.16699,22.15
$IMU,40872.463,2.746,5.004,-4.638,0.09521,0.93994,0.17089,22.15
$MAG,40872.464,-0.366,-0.498,-0.571,21.2
$IMU,40872.465,2.746,5.798,-4.333,0.08935,0.93066,0.15673,22.15
$IMU,40872.468,2.929,6.469,-4.089,0.07470,0.91845,0.14941,22.12
$IMU,40872.470,3.112,7.080,-3.845,0.05908,0.92431,0.15527,22.12
$IMU,40872.472,3.173,7.812,-3.662,0.04833,0.92529,0.14941,22.12
$MAG,40872.474,-0.361,-0.496,-0.562,21.0
$IMU,40872.475,3.295,8.117,-3.356,0.03662,0.92626,0.14990,22.12
$IMU,40872.477,3.234,8.361,-2.990,0.02685,0.92724,0.14306,22.12
$IMU,40872.479,3.234,8.483,-2.502,0.01464,0.93408,0.14160,22.12
$IMU,40872.482,3.295,8.483,-2.136,0.00000,0.95214,0.14843,22.12
$MAG,40872.484,-0.369,-0.504,-0.561,21.3
$IMU,40872.484,2.990,8.544,-1.770,0.00195,0.97949,0.15429,22.12
$IMU,40872.486,2.563,8.544,-1.220,0.00781,0.99755,0.14843,22.15
$IMU,40872.489,2.075,8.605,-0.915,0.01708,1.01806,0.15283,22.15
$IMU,40872.491,1.586,8.483,-0.427,0.02343,1.03808,0.15820,22.15
$IMU,40872.493,0.915,8.728,-0.061,0.03320,1.04345,0.16015,22.15
$MAG,40872.494,-0.360,-0.505,-0.564,21.0
$IMU,40872.496,0.305,8.911,0.122,0.03955,1.05664,0.15869,22.15
$IMU,40872.498,-0.488,9.155,0.427,0.04296,1.06933,0.16601,22.15
$IMU,40872.500,-1.220,9.521,0.671,0.04687,1.07714,0.16845,22.15
$IMU,40872.503,-2.075,9.948,0.976,0.05273,1.08740,0.17480,22.15
$MAG,40872.504,-0.370,-0.502,-0.567,21.2
$IMU,40872.505,-2.868,10.314,1.281,0.05664,1.09033,0.17382,22.09
$IMU,40872.507,-3.723,10.742,1.708,0.05908,1.09033,0.17626,22.09
$IMU,40872.510,-4.516,11.108,2.136,0.05566,1.09375,0.18066,22.09
$IMU,40872.512,-5.554,11.474,2.502,0.05566,1.10595,0.19091,22.09
$MAG,40872.514,-0.364,-0.496,-0.559,21.5
$IMU,40872.514,-6.652,12.084,2.990,0.06494,1.11376,0.19433,22.09
$BARO,40872.517,86896.68,22.73
$IMU,40872.517,-7.690,12.390,3.601,0.06542,1.10498,0.18896,22.09
$IMU,40872.519,-8.666,12.878,4.150,0.06250,1.10449,0.19140,22.09
$IMU,40872.521,-9.643,13.244,4.760,0.05224,1.10791,0.19677,22.09
$MAG,40872.524,-0.367,-0.498,-0.564,21.0
$IMU,40872.524,-10.742,13.610,5.371,0.05126,1.10693,0.19921,22.15
$IMU,40872.526,-11.718,13.793,6.042,0.05029,1.09179,0.19335,22.15
$IMU,40872.529,-12.634,14.221,6.591,0.04931,1.08544,0.19531,22.15
$IMU,40872.531,-13.488,14.404,7.080,0.04394,1.07568,0.19140,22.15
$IMU,40872.533,-14.221,14.709,7.568,0.03564,1.06005,0.18847,22.15
$MAG,40872.534,-0.364,-0.508,-0.561,21.3
$IMU,40872.536,-14.709,14.953,7.995,0.02294,1.04589,0.18310,22.15
$IMU,40872.538,-15.075,15.136,8.422,0.01513,1.03662,0.17919,22.15
$IMU,40872.540,-15.380,15.075,8.789,0.00781,1.02392,0.17919,22.15
$IMU,40872.543,-15.563,15.136,9.216,0.00244,1.00439,0.17138,22.12
$MAG,40872.545,-0.363,-0.496,-0.559,21.2
$IMU,40872.545,-15.625,15.197,9.704,-0.00927,0.99609,0.17187,22.12
$IMU,40872.547,-15.625,15.075,10.131,-0.01953,0.98291,0.16552,22.12
$IMU,40872.550,-15.625,14.770,10.620,-0.03564,0.96533,0.17041,22.12
$IMU,40872.552,-15.441,14.221,11.108,-0.06347,0.95556,0.17041,22.12
$IMU,40872.554,-15.319,13.671,11.474,-0.08105,0.93847,0.16943,22.12
$MAG,40872.555,-0.367,-0.498,-0.565,21.0
$IMU,40872.557,-14.953,13.000,11.901,-0.09570,0.91796,0.15917,22.12
$IMU,40872.559,-14.282,12.268,11.962,-0.10302,0.89794,0.15771,22.12
$IMU,40872.561,-13.610,11.657,11.901,-0.10107,0.87695,0.14697,22.16
$IMU,40872.564,-12.756,10.742,11.779,-0.10253,0.86816,0.14062,22.16
$MAG,40872.565,-0.361,-0.498,-0.568,21.0
$IMU,40872.566,-11.840,9.887,11.718,-0.10107,0.85742,0.14160,22.16
$IMU,40872.568,-10.681,8.850,11.535,-0.09863,0.85009,0.14404,22.16
$IMU,40872.571,-9.765,8.117,11.413,-0.08984,0.85009,0.14208,22.16
$IMU,40872.573,-8.789,7.385,11.291,-0.08154,0.85058,0.14306,22.16
$MAG,40872.575,-0.369,-0.484,-0.564,21.2
$IMU,40872.575,-7.812,6.530,11.291,-0.07373,0.85742,0.14941,22.16
$IMU,40872.578,-6.896,5.920,10.986,-0.04345,0.86621,0.16113,22.16
$IMU,40872.580,-5.920,5.676,10.437,-0.07177,0.87402,0.15527,22.09
$IMU,40872.582,-5.371,4.272,10.803,-0.05029,0.88330,0.15869,22.09
$MAG,40872.585,-0.367,-0.493,-0.576,21.0
$IMU,40872.585,-4.638,3.479,10.498,-0.04248,0.89306,0.15722,22.09
$IMU,40872.587,-4.028,2.929,10.192,-0.04150,0.90869,0.16064,22.09
$IMU,40872.590,-3.356,2.380,9.521,-0.03027,0.92285,0.16455,22.09
$IMU,40872.592,-2.807,1.892,8.728,-0.04150,0.91210,0.14794,22.09
$IMU,40872.594,-1.953,1.403,7.751,-0.05761,0.91796,0.14550,22.09
$MAG,40872.595,-0.364,-0.495,-0.576,21.2
$IMU,40872.597,-1.220,0.732,6.652,-0.05175,0.93994,0.15039,22.09
$IMU,40872.599,-0.610,0.183,5.676,-0.03759,0.93310,0.14892,22.12
$IMU,40872.601,0.183,-0.122,4.638,-0.02539,0.93261,0.14306,22.12
$IMU,40872.604,0.854,-0.671,3.662,-0.01757,0.92968,0.14892,22.12
$MAG,40872.605,-0.367,-0.496,-0.564,21.2
$IMU,40872.606,1.525,-1.159,2.685,-0.01806,0.92236,0.14599,22.12
$IMU,40872.608,2.258,-1.525,1.770,-0.01416,0.92480,0.14892,22.12
$IMU,40872.611,2.929,-2.014,0.793,-0.00878,0.93017,0.14599,22.12
$IMU,40872.613,3.601,-2.441,-0.122,0.00146,0.93115,0.15185,22.12
$MAG,40872.615,-0.363,-0.492,-0.574,20.9
$IMU,40872.615,4.150,-2.685,-1.037,0.00830,0.92578,0.14697,22.12
$IMU,40872.618,4.760,-2.929,-1.892,0.01464,0.92285,0.14404,22.15
$BARO,40872.619,86902.01,22.73
$IMU,40872.620,5.493,-3.173,-2.624,0.01708,0.91845,0.14599,22.15
$IMU,40872.622,6.164,-3.540,-3.417,0.01611,0.92089,0.14794,22.15
$MAG,40872.625,-0.364,-0.495,-0.573,21.4
$IMU,40872.625,6.774,-3.723,-4.150,0.02197,0.93066,0.15087,22.15
$IMU,40872.627,7.324,-3.845,-4.882,0.02685,0.93457,0.15234,22.15
$IMU,40872.629,7.873,-4.028,-5.493,0.03662,0.93896,0.15771,22.15
$IMU,40872.632,8.422,-4.028,-5.981,0.04150,0.94677,0.15869,22.15
$IMU,40872.634,8.911,-4.272,-6.469,0.05322,0.96386,0.16943,22.15
$MAG,40872.635,-0.369,-0.499,-0.561,21.0
$IMU,40872.636,9.277,-4.150,-6.774,0.06298,0.96875,0.16357,22.16
$IMU,40872.639,9.643,-4.028,-7.080,0.07226,0.98095,0.16552,22.16
$IMU,40872.641,10.070,-3.845,-7.385,0.08203,1.00146,0.17187,22.16
$VBAT,40872.641,4.134
$IMU,40872.643,10.192,-3.295,-7.629,0.09277,1.01367,0.17138,22.16
$MAG,40872.645,-0.367,-0.490,-0.577,21.5
$IMU,40872.646,10.375,-2.990,-7.873,0.10449,1.02392,0.17480,22.16
$IMU,40872.648,10.559,-2.685,-7.934,0.10693,1.03515,0.17822,22.16
$IMU,40872.650,10.498,-2.319,-7.934,0.10839,1.04345,0.18310,22.16
$IMU,40872.653,10.375,-2.075,-7.873,0.10644,1.05517,0.18896,22.16
$MAG,40872.655,-0.358,-0.501,-0.568,20.9
$IMU,40872.655,10.192,-1.831,-7.751,0.10498,1.06396,0.18945,22.14
$IMU,40872.658,9.826,-1.647,-7.629,0.09912,1.07714,0.19287,22.14
$IMU,40872.660,9.399,-1.403,-7.385,0.09521,1.08691,0.19580,22.14
$IMU,40872.662,8.911,-1.281,-7.263,0.09326,1.09619,0.19482,22.14
$MAG,40872.665,-0.367,-0.496,-0.561,21.3
$IMU,40872.665,8.544,-1.098,-7.263,0.08837,1.11181,0.19384,22.14
$IMU,40872.667,8.056,-0.976,-7.202,0.08105,1.11474,0.19287,22.14
$IMU,40872.669,7.568,-0.732,-7.324,0.07910,1.11523,0.18798,22.14
$IMU,40872.672,7.202,-0.549,-7.507,0.07373,1.12109,0.18750,22.14
$IMU,40872.674,6.713,-0.366,-7.751,0.07080,1.13427,0.18798,22.13
$MAG,40872.676,-0.363,-0.496,-0.565,21.2
$IMU,40872.676,6.286,-0.122,-7.995,0.07128,1.14208,0.18896,22.13
$IMU,40872.679,5.737,0.122,-8.056,0.07470,1.13623,0.18457,22.13
$IMU,40872.681,5.310,0.366,-8.178,0.07470,1.13427,0.18652,22.13
$IMU,40872.683,4.821,0.610,-8.178,0.07226,1.13183,0.19042,22.13
$MAG,40872.686,-0.364,-0.499,-0.567,21.4
$IMU,40872.686,4.333,0.732,-8.178,0.06884,1.12841,0.18896,22.13
$IMU,40872.688,3.784,0.976,-8.056,0.06445,1.12402,0.19091,22.13
$IMU,40872.690,3.234,1.098,-8.117,0.06201,1.12109,0.19140,22.13
$IMU,40872.693,2.807,1.220,-7.934,0.05908,1.10595,0.18994,22.15
$IMU,40872.695,2.380,1.220,-7.751,0.06152,1.09863,0.19384,22.15
$MAG,40872.696,-0.361,-0.502,-0.564,21.0
$IMU,40872.697,1.953,1.342,-7.690,0.05664,1.09130,0.19238,22.15
$IMU,40872.700,1.525,1.464,-7.629,0.05859,1.08154,0.18945,22.15
$IMU,40872.702,1.281,1.708,-7.507,0.05908,1.06884,0.18603,22.15
$IMU,40872.704,1.159,1.647,-7.507,0.06005,1.05810,0.18115,22.15
$MAG,40872.706,-0.366,-0.505,-0.564,21.3
$IMU,40872.707,1.037,1.831,-7.507,0.06054,1.05371,0.17968,22.15
$IMU,40872.709,0.976,2.014,-7.507,0.05859,1.04931,0.18017,22.15
$IMU,40872.711,1.037,2.319,-7.690,0.06347,1.04638,0.17822,22.17
$IMU,40872.714,1.098,2.563,-7.690,0.06054,1.04199,0.17871,22.17
$MAG,40872.716,-0.363,-0.493,-0.568,21.2
$IMU,40872.716,0.976,2.868,-7.812,0.06201,1.03710,0.17871,22.17
$IMU,40872.719,0.976,2.990,-7.812,0.05908,1.03906,0.17919,22.17
$BARO,40872.720,86900.62,22.73
$IMU,40872.721,1.037,3.295,-7.812,0.06054,1.03710,0.18261,22.17
$IMU,40872.723,0.976,3.479,-7.690,0.06201,1.03320,0.18261,22.17
$IMU,40872.726,0.915,3.784,-7.568,0.06591,1.03320,0.18310,22.17
$MAG,40872.726,-0.357,-0.501,-0.565,21.2
$IMU,40872.728,0.915,4.272,-7.507,0.07128,1.03125,0.18115,22.17
$IMU,40872.730,0.854,4.577,-7.446,0.07666,1.02587,0.18261,22.15
$IMU,40872.733,0.915,5.004,-7.324,0.08544,1.01904,0.17822,22.15
$IMU,40872.735,1.037,5.432,-7.263,0.09033,1.01123,0.17431,22.15
$MAG,40872.736,-0.366,-0.499,-0.562,21.4
$IMU,40872.737,1.220,5.859,-7.202,0.09326,1.00683,0.17431,22.15
$IMU,40872.740,1.403,6.347,-7.019,0.09619,1.00146,0.16748,22.15
$IMU,40872.742,1.647,6.835,-6.774,0.09960,0.99072,0.16503,22.15
$IMU,40872.744,1.953,7.263,-6.591,0.09472,0.98876,0.16210,22.15
$MAG,40872.746,-0.360,-0.510,-0.561,21.4
$IMU,40872.747,2.319,7.690,-6.347,0.09228,0.98486,0.15917,22.15
$IMU,40872.749,2.563,7.934,-6.164,0.08593,0.98242,0.15869,22.14
$IMU,40872.751,2.990,7.934,-5.981,0.07373,0.99023,0.15234,22.14
$IMU,40872.754,3.234,8.178,-5.859,0.06054,0.99072,0.15234,22.14
$MAG,40872.756,-0.351,-0.498,-0.558,21.2
$IMU,40872.756,3.540,8.239,-5.676,0.04687,0.99316,0.15332,22.14
$IMU,40872.758,3.845,8.056,-5.615,0.03710,0.99267,0.14306,22.14
$IMU,40872.761,4.211,7.934,-5.554,0.02148,0.98876,0.13720,22.14
$IMU,40872.763,4.638,7.568,-5.615,0.01220,0.98583,0.13330,22.14
$IMU,40872.765,5.065,7.202,-5.798,0.00878,0.97900,0.13037,22.14
$MAG,40872.766,-0.360,-0.505,-0.562,20.9
$IMU,40872.768,5.615,6.896,-6.225,0.00390,0.97070,0.12939,22.11
$IMU,40872.770,6.042,6.896,-6.774,0.00927,0.97509,0.12988,22.11
$IMU,40872.772,6.530,6.713,-7.263,0.01123,0.97119,0.13134,22.11
$IMU,40872.775,7.202,6.530,-7.751,0.01953,0.96777,0.13378,22.11
$MAG,40872.776,-0.358,-0.502,-0.562,21.5
$IMU,40872.777,7.751,6.469,-8.239,0.02197,0.96777,0.13525,22.11
$IMU,40872.779,8.361,6.286,-8.728,0.02685,0.96679,0.13574,22.11
$IMU,40872.782,8.850,6.225,-9.155,0.03076,0.96533,0.13574,22.11
$IMU,40872.784,9.338,6.225,-9.521,0.03125,0.96240,0.13281,22.11
$MAG,40872.786,-0.351,-0.492,-0.558,21.0
$IMU,40872.787,9.826,6.164,-9.887,0.03076,0.96386,0.12939,22.14
$IMU,40872.789,10.253,6.286,-10.192,0.02392,0.96337,0.12548,22.14
$IMU,40872.791,10.803,5.981,-10.437,0.01464,0.96923,0.12695,22.14
$IMU,40872.794,11.169,5.859,-10.742,0.00292,0.97363,0.12988,22.14
$IMU,40872.796,11.413,5.920,-10.864,-0.00244,0.97314,0.12890,22.14
$MAG,40872.797,-0.351,-0.511,-0.567,21.2
$IMU,40872.798,11.718,5.737,-11.047,-0.00537,0.97265,0.13085,22.14
$IMU,40872.801,11.962,5.676,-11.169,-0.00976,0.97705,0.13134,22.14
$IMU,40872.803,12.329,5.432,-11.230,-0.01074,0.97753,0.12744,22.14
$IMU,40872.805,12.573,5.249,-11.291,-0.00341,0.97460,0.13037,22.14
$MAG,40872.807,-0.343,-0.501,-0.567,21.5
$IMU,40872.808,12.817,4.943,-11.230,-0.00048,0.97265,0.12548,22.14
$IMU,40872.810,13.122,4.760,-11.108,0.00097,0.97363,0.12695,22.14
$IMU,40872.812,13.427,4.699,-10.986,0.00488,0.97460,0.12597,22.14
$IMU,40872.815,13.671,4.638,-10.925,0.01123,0.97216,0.12451,22.14
$MAG,40872.817,-0.355,-0.504,-0.562,21.4
$IMU,40872.817,13.977,4.638,-10.803,0.01171,0.97265,0.12207,22.14
$IMU,40872.819,14.404,4.516,-10.681,0.00634,0.97119,0.11816,22.14
$BARO,40872.822,86903.06,22.73
$IMU,40872.822,14.770,4.455,-10.559,0.00634,0.97705,0.12011,22.14
$IMU,40872.824,15.075,4.455,-10.253,0.00976,0.97509,0.11865,22.13
$IMU,40872.826,15.258,4.516,-9.826,0.00585,0.97070,0.11718,22.13
$MAG,40872.827,-0.351,-0.498,-0.561,21.3
$IMU,40872.829,15.380,4.211,-9.338,-0.00585,0.97607,0.11865,22.13
$IMU,40872.831,15.625,3.967,-8.789,-0.01367,0.98242,0.12011,22.13
$IMU,40872.833,15.747,3.662,-8.300,-0.02783,0.98730,0.12207,22.13
$IMU,40872.836,15.808,3.295,-7.629,-0.03906,0.99414,0.12060,22.13
$MAG,40872.837,-0.355,-0.508,-0.553,21.5
$IMU,40872.838,15.991,2.868,-7.141,-0.04785,1.00097,0.11914,22.13
$IMU,40872.840,16.052,2.441,-6.591,-0.05468,1.00537,0.11718,22.13
$IMU,40872.843,16.113,2.075,-6.103,-0.05957,1.00244,0.11767,22.15
$IMU,40872.845,16.296,1.525,-5.615,-0.06005,1.00585,0.11474,22.15
$MAG,40872.847,-0.349,-0.498,-0.549,21.5
$IMU,40872.848,16.418,0.915,-5.065,-0.06152,1.00683,0.11328,22.15
$IMU,40872.850,16.540,0.610,-4.638,-0.05908,1.01318,0.11035,22.15
$IMU,40872.852,16.723,0.000,-4.089,-0.05419,1.01660,0.11230,22.15
$IMU,40872.855,16.784,-0.183,-3.662,-0.04785,1.01855,0.11083,22.15
$MAG,40872.857,-0.357,-0.504,-0.559,21.5
$IMU,40872.857,16.784,-0.488,-3.173,-0.04541,1.02294,0.11376,22.15
$IMU,40872.859,16.784,-0.732,-2.746,-0.04296,1.02197,0.11376,22.15
$IMU,40872.862,16.784,-1.159,-2.197,-0.03271,1.02392,0.11718,22.12
$IMU,40872.864,16.662,-1.586,-1.586,-0.02832,1.02832,0.12011,22.12
$IMU,40872.866,16.479,-1.831,-0.976,-0.02441,1.03125,0.12158,22.12
$MAG,40872.867,-0.351,-0.505,-0.552,21.0
$IMU,40872.869,16.174,-2.075,-0.610,-0.02539,1.02880,0.12011,22.12
$IMU,40872.871,15.869,-2.197,-0.183,-0.02587,1.03076,0.11523,22.12
$IMU,40872.873,15.808,-2.380,0.183,-0.02636,1.02734,0.11376,22.12
$IMU,40872.876,15.686,-2.624,0.366,-0.02343,1.02246,0.10742,22.12
$IMU,40872.878,15.686,-2.929,0.488,-0.02099,1.01513,0.10400,22.12
$MAG,40872.877,-0.345,-0.499,-0.541,20.9
$IMU,40872.880,15.625,-2.868,0.549,-0.01806,1.01416,0.10058,22.17
$IMU,40872.883,15.563,-2.990,0.549,-0.01708,1.01367,0.09570,22.17
$IMU,40872.885,15.563,-2.868,0.549,-0.00830,1.01562,0.09521,22.17
$MAG,40872.887,-0.345,-0.508,-0.546,21.0
$IMU,40872.887,15.563,-2.868,0.549,-0.00830,1.01757,0.09277,22.17
$IMU,40872.890,15.441,-2.868,0.732,-0.00976,1.01562,0.09179,22.17
$IMU,40872.892,15.502,-2.990,0.854,-0.01562,1.01562,0.09082,22.17
$IMU,40872.894,15.258,-2.929,0.976,-0.01611,1.01562,0.09033,22.17
$MAG,40872.897,-0.349,-0.498,-0.547,21.2
$IMU,40872.897,15.136,-2.990,1.220,-0.02099,1.01367,0.08837,22.17
$IMU,40872.899,14.953,-2.929,1.342,-0.02685,1.01367,0.08789,22.16
$IMU,40872.901,14.648,-2.929,1.586,-0.03125,1.01318,0.09033,22.16
$IMU,40872.904,14.404,-3.112,1.831,-0.02734,1.00927,0.08789,22.16
$IMU,40872.906,14.160,-3.356,2.075,-0.02685,1.00439,0.08251,22.16
$MAG,40872.907,-0.355,-0.507,-0.546,21.4
$IMU,40872.908,14.099,-3.479,2.258,-0.02832,1.00390,0.08251,22.16
$IMU,40872.911,13.916,-3.540,2.319,-0.03271,1.00292,0.08007,22.16
$IMU,40872.913,13.793,-3.723,2.441,-0.03417,0.99804,0.07714,22.16
$IMU,40872.916,13.732,-3.723,2.624,-0.03613,1.00097,0.07519,22.16
$MAG,40872.917,-0.351,-0.513,-0.546,21.0
$IMU,40872.918,13.610,-3.784,2.807,-0.03271,0.99853,0.07324,22.13
$IMU,40872.920,13.488,-4.150,2.990,-0.03076,1.00146,0.07128,22.13
$BARO,40872.923,86900.58,22.73
$IMU,40872.923,13.305,-3.906,3.295,-0.03076,1.00488,0.07421,22.13
$IMU,40872.925,13.183,-4.150,3.540,-0.02587,1.00683,0.07568,22.13
$IMU,40872.927,12.939,-4.272,4.028,-0.02099,1.00976,0.07666,22.13
$MAG,40872.928,-0.351,-0.513,-0.541,20.9
$IMU,40872.930,12.756,-4.211,4.577,-0.02197,1.01074,0.07861,22.13
$IMU,40872.932,12.573,-4.272,5.187,-0.01416,1.01318,0.08056,22.13
$IMU,40872.934,12.390,-4.455,5.676,-0.01269,1.01171,0.08349,22.13
$IMU,40872.937,12.145,-4.455,6.225,-0.00390,1.00537,0.08544,22.13
$MAG,40872.938,-0.351,-0.510,-0.538,21.2
$IMU,40872.939,11.901,-4.394,6.774,-0.00097,1.00683,0.08203,22.13
$IMU,40872.941,11.657,-4.333,7.263,0.00390,1.00244,0.08056,22.13
$IMU,40872.944,11.535,-4.272,7.629,0.00927,0.99853,0.08105,22.13
$IMU,40872.946,11.535,-4.333,7.995,0.00927,0.99365,0.08105,22.13
$MAG,40872.948,-0.355,-0.516,-0.544,21.4
$IMU,40872.948,11.535,-4.394,8.178,0.00976,0.98730,0.08203,22.13
$IMU,40872.951,11.596,-4.272,8.361,0.01416,0.98242,0.07861,22.13
$IMU,40872.953,11.596,-3.967,8.422,0.01708,0.98046,0.08154,22.13
$IMU,40872.955,11.657,-4.028,8.666,0.01513,0.98291,0.08349,22.12
$MAG,40872.958,-0.351,-0.513,-0.538,21.3
$IMU,40872.958,11.779,-3.967,8.789,0.02050,0.98291,0.08251,22.12
$IMU,40872.960,11.901,-4.028,8.911,0.02832,0.98095,0.08642,22.12
$IMU,40872.962,11.901,-3.906,9.033,0.03369,0.98339,0.08740,22.12
$HUM,40872.964,41.3,23.0
$IMU,40872.965,11.901,-3.845,9.033,0.03857,0.98876,0.09130,22.12
$IMU,40872.967,11.962,-3.601,9.094,0.04052,0.99316,0.08740,22.12
$MAG,40872.968,-0.360,-0.507,-0.535,21.4
$IMU,40872.969,12.023,-3.723,9.033,0.04150,0.99609,0.08886,22.12
$IMU,40872.972,11.901,-3.601,8.911,0.04638,1.00195,0.08593,22.12
$IMU,40872.974,11.901,-3.479,8.728,0.04443,1.00439,0.08300,22.16
$IMU,40872.977,11.779,-3.417,8.361,0.04541,1.01464,0.08349,22.16
$MAG,40872.978,-0.352,-0.507,-0.543,21.0
$IMU,40872.979,11.718,-3.479,7.995,0.04296,1.02050,0.08300,22.16
$IMU,40872.981,11.657,-3.356,7.690,0.04345,1.02490,0.08203,22.16
$IMU,40872.984,11.474,-3.173,7.263,0.04150,1.03320,0.08398,22.16
$IMU,40872.986,11.291,-3.051,6.774,0.04150,1.04003,0.08398,22.16
$MAG,40872.988,-0.360,-0.514,-0.540,21.4
$IMU,40872.988,11.108,-3.112,6.408,0.04003,1.03906,0.08496,22.16
$IMU,40872.991,10.925,-3.112,5.798,0.04003,1.04833,0.08837,22.16
$IMU,40872.993,10.620,-3.112,5.432,0.03857,1.05175,0.08642,22.16
$IMU,40872.995,10.314,-3.051,4.882,0.03466,1.05224,0.08984,22.16
$MAG,40872.998,-0.360,-0.513,-0.535,21.5
$IMU,40872.998,10.009,-3.112,4.394,0.03125,1.05273,0.08740,22.16
$IMU,40873.000,9.704,-3.234,3.967,0.03076,1.05371,0.08447,22.16
$IMU,40873.002,9.399,-3.234,3.540,0.02783,1.05078,0.08496,22.16
$IMU,40873.005,9.155,-3.295,2.990,0.02539,1.04931,0.08398,22.16
$IMU,40873.007,8.911,-3.356,2.502,0.02343,1.04882,0.08496,22.16
$MAG,40873.008,-0.366,-0.508,-0.532,21.5
$IMU,40873.009,8.483,-3.356,2.014,0.02539,1.04541,0.08544,22.16
$IMU,40873.012,8.300,-3.173,1.525,0.02636,1.04492,0.07910,22.14
$IMU,40873.014,8.117,-3.173,0.976,0.02929,1.04150,0.08105,22.14
$IMU,40873.016,7.934,-2.990,0.427,0.03515,1.04248,0.08300,22.14
$MAG,40873.018,-0.358,-0.519,-0.531,21.5
$IMU,40873.019,7.690,-2.929,-0.061,0.03564,1.04101,0.08203,22.14
$IMU,40873.021,7.568,-2.990,-0.427,0.03759,1.03906,0.08105,22.14
$IMU,40873.023,7.446,-2.746,-0.732,0.04492,1.04052,0.07958,22.14
$BARO,40873.025,86900.06,22.72
$IMU,40873.026,7.141,-2.441,-1.037,0.04638,1.04003,0.08056,22.14
$IMU,40873.028,6.896,-2.014,-1.403,0.05761,1.03613,0.08349,22.14
$MAG,40873.028,-0.364,-0.504,-0.537,21.4
$IMU,40873.030,6.774,-1.770,-1.586,0.06347,1.03710,0.08496,22.16
$IMU,40873.033,6.530,-1.403,-1.708,0.07080,1.03564,0.08886,22.16
$IMU,40873.035,6.286,-1.098,-1.708,0.07031,1.03369,0.09130,22.16
$IMU,40873.037,6.042,-0.793,-1.647,0.07324,1.03515,0.08935,22.16
$MAG,40873.038,-0.351,-0.522,-0.537,21.0
$IMU,40873.040,5.737,-0.305,-1.647,0.06933,1.03369,0.08935,22.16
$IMU,40873.042,5.493,0.122,-1.708,0.06835,1.02929,0.08740,22.16
$IMU,40873.045,5.249,0.549,-1.708,0.06103,1.02490,0.08251,22.16
$IMU,40873.047,5.187,0.671,-1.831,0.05273,1.02294,0.08056,22.16
$MAG,40873.048,-0.351,-0.510,-0.531,21.4
$IMU,40873.049,5.065,1.037,-1.953,0.04882,1.01660,0.07958,22.18
$IMU,40873.052,5.004,1.159,-2.136,0.03857,1.01367,0.07812,22.18
$IMU,40873.054,5.004,1.464,-2.380,0.02587,1.01074,0.07861,22.18
$IMU,40873.056,4.943,1.525,-2.502,0.02001,1.00976,0.07568,22.18
$MAG,40873.059,-0.367,-0.511,-0.529,21.2
$IMU,40873.059,4.943,1.403,-2.685,0.01123,1.00781,0.07421,22.18
$IMU,40873.061,5.004,1.525,-2.868,0.00537,1.00732,0.07470,22.18
$IMU,40873.063,5.065,1.342,-2.990,-0.00537,1.00781,0.07714,22.18
$IMU,40873.066,5.004,1.281,-2.990,-0.01318,1.00683,0.08105,22.18
$IMU,40873.068,4.882,1.159,-2.990,-0.01806,1.01123,0.08105,22.17
$MAG,40873.069,-0.355,-0.519,-0.538,21.5
$IMU,40873.070,4.821,0.854,-2.990,-0.02050,1.01367,0.07958,22.17
$IMU,40873.073,4.821,0.427,-2.929,-0.03125,1.00976,0.07958,22.17
$IMU,40873.075,4.638,0.122,-2.868,-0.03710,1.01269,0.08300,22.17
$IMU,40873.077,4.516,-0.366,-2.929,-0.04101,1.01416,0.08251,22.17
$MAG,40873.079,-0.360,-0.513,-0.529,21.3
$IMU,40873.080,4.333,-0.793,-2.990,-0.04980,1.00830,0.07568,22.17
$IMU,40873.082,4.333,-1.220,-3.051,-0.04589,1.01220,0.07568,22.17
$IMU,40873.084,4.272,-1.647,-3.112,-0.04541,1.01513,0.07470,22.17
$IMU,40873.087,4.333,-2.197,-3.295,-0.04492,1.01171,0.07324,22.16
$MAG,40873.089,-0.355,-0.516,-0.532,21.2
$IMU,40873.089,4.455,-2.929,-3.356,-0.04296,1.01611,0.07226,22.16
$IMU,40873.091,4.455,-3.356,-3.479,-0.04199,1.01757,0.07128,22.16
$IMU,40873.094,4.455,-3.784,-3.540,-0.04345,1.01074,0.07226,22.16
$IMU,40873.096,4.455,-4.089,-3.540,-0.04248,1.01171,0.07128,22.16
$IMU,40873.098,4.455,-4.577,-3.479,-0.04882,1.01708,0.07080,22.16
$MAG,40873.099,-0.360,-0.516,-0.534,21.0
$IMU,40873.101,4.455,-5.065,-3.356,-0.04589,1.01416,0.06982,22.16
$IMU,40873.103,4.394,-5.554,-3.173,-0.04785,1.01074,0.06835,22.16
$IMU,40873.106,4.333,-5.981,-2.929,-0.05273,1.01367,0.06835,22.16
$IMU,40873.108,4.272,-6.530,-2.746,-0.05517,1.01074,0.06494,22.16
$MAG,40873.109,-0.349,-0.514,-0.532,21.4
$IMU,40873.110,4.211,-6.958,-2.563,-0.05957,1.01220,0.06347,22.16
$IMU,40873.113,4.150,-7.324,-2.441,-0.05810,1.00634,0.06250,22.16
$IMU,40873.115,4.089,-7.934,-2.258,-0.05712,1.00439,0.05810,22.16
$IMU,40873.117,4.028,-8.300,-2.136,-0.05322,1.00292,0.06152,22.16
$MAG,40873.119,-0.358,-0.513,-0.526,21.4
$IMU,40873.120,4.150,-8.789,-1.953,-0.05224,1.00097,0.05615,22.16
$IMU,40873.122,4.150,-9.216,-1.892,-0.04638,1.00048,0.05664,22.16
$IMU,40873.124,4.150,-9.460,-1.892,-0.04003,1.00146,0.05712,22.15
$BARO,40873.126,86911.52,22.73
$IMU,40873.127,4.089,-9.582,-1.831,-0.03320,1.00732,0.05615,22.15
$MAG,40873.129,-0.361,-0.505,-0.531,21.4
$IMU,40873.129,4.089,-10.070,-1.831,-0.02343,1.01025,0.05761,22.15
$IMU,40873.131,3.967,-10.070,-1.647,-0.01416,1.01074,0.05664,22.15
$IMU,40873.134,3.784,-9.887,-1.525,-0.00390,1.01757,0.05859,22.15
$IMU,40873.136,3.723,-10.070,-1.525,0.00390,1.02343,0.06005,22.15
$IMU,40873.138,3.417,-9.887,-1.403,0.01269,1.02099,0.05712,22.15
$MAG,40873.139,-0.349,-0.519,-0.529,21.2
$IMU,40873.141,3.234,-9.704,-1.281,0.01904,1.02343,0.05322,22.15
$IMU,40873.143,3.173,-9.765,-1.403,0.02343,1.02148,0.05126,22.15
$IMU,40873.145,2.990,-9.521,-1.342,0.02587,1.02050,0.04833,22.15
$IMU,40873.148,2.868,-9.338,-1.342,0.02880,1.02001,0.04541,22.15
$MAG,40873.149,-0.357,-0.520,-0.525,21.2
$IMU,40873.150,2.685,-9.094,-1.403,0.03320,1.02099,0.04199,22.15
$IMU,40873.152,2.502,-8.605,-1.403,0.03466,1.02392,0.04296,22.15
$IMU,40873.155,2.502,-8.483,-1.525,0.03564,1.02587,0.04443,22.15
$IMU,40873.157,2.441,-8.178,-1.464,0.03613,1.03027,0.04931,22.15
$MAG,40873.159,-0.363,-0.516,-0.525,21.0
$IMU,40873.159,2.197,-7.995,-1.342,0.03710,1.02978,0.04736,22.15
$IMU,40873.162,2.136,-7.812,-1.342,0.03857,1.03173,0.04980,22.11
$IMU,40873.164,1.953,-7.385,-1.403,0.04101,1.03515,0.05175,22.11
$IMU,40873.166,1.708,-7.202,-1.342,0.04443,1.03515,0.05078,22.11
$MAG,40873.169,-0.358,-0.517,-0.526,21.3
$IMU,40873.169,1.586,-6.958,-1.220,0.04882,1.03613,0.04785,22.11
$IMU,40873.171,1.586,-6.713,-1.342,0.05029,1.03369,0.05078,22.11
$IMU,40873.174,1.647,-6.347,-1.464,0.05419,1.03369,0.05126,22.11
$IMU,40873.176,1.586,-5.981,-1.647,0.06103,1.03271,0.05419,22.11
$IMU,40873.178,1.708,-5.737,-1.770,0.06396,1.03027,0.05615,22.11
$MAG,40873.180,-0.363,-0.519,-0.528,21.4
$IMU,40873.181,1.708,-5.187,-1.892,0.06933,1.02685,0.05664,22.17
$IMU,40873.183,1.831,-4.882,-2.014,0.07226,1.02441,0.05957,22.17
$IMU,40873.185,1.892,-4.577,-2.075,0.07568,1.02343,0.06103,22.17
$IMU,40873.188,1.953,-4.211,-2.197,0.07666,1.01757,0.05859,22.17
$MAG,40873.190,-0.360,-0.517,-0.526,21.2
$IMU,40873.190,2.136,-3.906,-2.197,0.07568,1.01123,0.06005,22.17
$IMU,40873.192,2.319,-3.356,-2.197,0.07763,1.01611,0.06152,22.17
$IMU,40873.195,2.380,-2.807,-2.380,0.07617,1.01025,0.06250,22.17
$IMU,40873.197,2.685,-2.624,-2.380,0.07470,1.00537,0.06494,22.17
$IMU,40873.199,2.807,-2.197,-2.441,0.07324,1.00830,0.06542,22.18
$MAG,40873.200,-0.352,-0.516,-0.525,21.2
$IMU,40873.202,2.990,-1.953,-2.502,0.07617,1.00781,0.06689,22.18
$IMU,40873.204,3.112,-1.586,-2.563,0.07324,1.01513,0.07226,22.18
$IMU,40873.206,3.295,-1.220,-2.563,0.06884,1.01660,0.07617,22.18
$IMU,40873.209,3.295,-0.793,-2.685,0.06689,1.02246,0.07568,22.18
$MAG,40873.210,-0.360,-0.517,-0.522,21.3
$IMU,40873.211,3.417,-0.671,-2.746,0.06542,1.02441,0.08007,22.18
$IMU,40873.213,3.540,-0.671,-2.868,0.05712,1.02490,0.07666,22.18
$IMU,40873.216,3.723,-0.427,-2.868,0.05664,1.02832,0.07666,22.18
$IMU,40873.218,3.845,-0.427,-2.929,0.05371,1.02636,0.07421,22.16
$MAG,40873.220,-0.358,-0.516,-0.529,21.0
$IMU,40873.220,3.784,-0.183,-2.929,0.04638,1.02734,0.07470,22.16
$IMU,40873.223,3.723,0.183,-2.929,0.04101,1.02832,0.07617,22.16
$IMU,40873.225,3.723,0.183,-2.868,0.03320,1.02832,0.07373,22.16
$IMU,40873.227,3.845,0.000,-2.746,0.02294,1.02734,0.07421,22.16
$BARO,40873.228,86904.89,22.74
$MAG,40873.230,-0.352,-0.513,-0.526,21.4
$IMU,40873.230,3.967,-0.183,-2.563,0.01318,1.02685,0.07226,22.16
$IMU,40873.232,3.845,-0.244,-2.258,0.00097,1.02685,0.07421,22.16
$IMU,40873.235,3.784,-0.488,-2.014,-0.00878,1.02441,0.07128,22.16
$IMU,40873.237,3.723,-0.549,-1.586,-0.01513,1.02636,0.06982,22.17
$IMU,40873.239,3.601,-0.915,-1.098,-0.02587,1.02685,0.06933,22.17
$MAG,40873.240,-0.358,-0.520,-0.523,21.0
$IMU,40873.242,3.540,-1.586,-0.610,-0.03466,1.02832,0.07226,22.17
$IMU,40873.244,3.356,-2.136,-0.122,-0.04736,1.03466,0.07275,22.17
$IMU,40873.246,3.112,-2.868,0.305,-0.04980,1.03564,0.07324,22.17
$IMU,40873.249,2.990,-3.540,0.427,-0.05419,1.03515,0.06982,22.17
$MAG,40873.250,-0.364,-0.517,-0.529,21.2
$IMU,40873.251,2.807,-4.028,0.488,-0.05712,1.03906,0.06933,22.17
$IMU,40873.253,2.685,-4.516,0.488,-0.05371,1.03466,0.07128,22.17
$IMU,40873.256,2.624,-5.187,0.305,-0.04785,1.03271,0.07031,22.18
$IMU,40873.258,2.624,-5.798,0.061,-0.04052,1.03125,0.07080,22.18
$MAG,40873.260,-0.360,-0.520,-0.528,21.0
$IMU,40873.260,2.624,-6.286,-0.061,-0.03125,1.02246,0.07031,22.18
$IMU,40873.263,2.624,-6.713,-0.366,-0.01806,1.01855,0.07226,22.18
$IMU,40873.265,2.685,-7.141,-0.488,-0.01025,1.00878,0.07226,22.18
$IMU,40873.267,2.685,-7.324,-0.610,0.00292,1.00439,0.07714,22.18
$MAG,40873.270,-0.357,-0.517,-0.520,21.2
$IMU,40873.270,2.746,-7.568,-0.671,0.01513,0.99902,0.07519,22.18
$IMU,40873.272,2.868,-7.812,-0.732,0.02148,0.99072,0.07861,22.18
$IMU,40873.274,3.051,-7.934,-0.732,0.02783,0.98681,0.07812,22.17
$IMU,40873.277,3.234,-8.056,-0.793,0.03564,0.98681,0.08203,22.17
$IMU,40873.279,3.356,-8.056,-0.854,0.04443,0.98486,0.08105,22.17
$MAG,40873.280,-0.360,-0.519,-0.526,21.3
$IMU,40873.281,3.417,-7.629,-0.915,0.04687,0.98193,0.07958,22.17
$IMU,40873.284,3.662,-7.690,-1.037,0.05322,0.98339,0.07763,22.17
$IMU,40873.286,3.845,-7.507,-1.281,0.06201,0.97949,0.08007,22.17
$IMU,40873.288,4.089,-7.324,-1.464,0.06445,0.98046,0.07763,22.17
$MAG,40873.290,-0.358,-0.523,-0.526,21.5
$IMU,40873.291,4.333,-7.080,-1.647,0.07275,0.97607,0.07763,22.17
$IMU,40873.293,4.516,-6.652,-1.892,0.07861,0.98339,0.07763,22.13
$IMU,40873.296,4.760,-6.164,-2.258,0.08789,0.98486,0.08154,22.13
$IMU,40873.298,4.882,-5.615,-2.563,0.09619,0.99267,0.08349,22.13
$MAG,40873.300,-0.363,-0.528,-0.523,21.4
$IMU,40873.300,5.126,-5.249,-2.868,0.10839,0.99707,0.08300,22.13
$IMU,40873.303,5.310,-4.577,-3.112,0.11523,1.00244,0.08642,22.13
$IMU,40873.305,5.432,-3.845,-3.417,0.11962,1.00781,0.08544,22.13
$IMU,40873.307,5.615,-3.112,-3.601,0.12451,1.01318,0.08642,22.13
$IMU,40873.310,5.615,-2.319,-3.784,0.12890,1.01464,0.08740,22.13
$MAG,40873.311,-0.354,-0.517,-0.528,21.2
$IMU,40873.312,5.798,-1.525,-4.028,0.12939,1.01513,0.08544,22.17
$IMU,40873.314,5.859,-0.793,-4.211,0.12597,1.01464,0.08300,22.17
$IMU,40873.317,5.859,-0.122,-4.272,0.12353,1.01562,0.07910,22.17
$IMU,40873.319,5.981,0.732,-4.455,0.11328,1.00830,0.07910,22.17
$MAG,40873.321,-0.367,-0.522,-0.528,21.5
$IMU,40873.321,6.042,1.281,-4.516,0.10498,1.00732,0.07714,22.17
$IMU,40873.324,6.103,1.831,-4.577,0.09375,1.00390,0.07275,22.17
$IMU,40873.326,6.164,2.380,-4.577,0.07617,1.00146,0.07226,22.17
$IMU,40873.328,6.164,2.624,-4.699,0.06640,1.00097,0.06738,22.17
$BARO,40873.330,86901.11,22.74
$IMU,40873.331,6.286,2.868,-4.699,0.05517,0.99804,0.06494,22.16
$MAG,40873.331,-0.360,-0.511,-0.516,21.3
$IMU,40873.333,6.408,3.173,-4.699,0.04589,0.99658,0.06494,22.16
$IMU,40873.335,6.408,3.479,-4.760,0.03515,1.00048,0.06054,22.16
