$FLYS,1
$VAR,FIRMWARE_VER,v2024.12.30
$VAR,DEVICE_ID,0017003b3253501720373657
$VAR,SESSION_ID,66c60487ba3f3fbf70ff6c59
$COL,BARO,time,pressure,temperature
$UNIT,BARO,s,Pa,deg C
$COL,HUM,time,humidity,temperature
$UNIT,HUM,s,percent,deg C
$COL,MAG,time,x,y,z,temperature
$UNIT,MAG,s,gauss,gauss,gauss,deg C
$COL,IMU,time,wx,wy,wz,ax,ay,az,temperature
$UNIT,IMU,s,deg/s,deg/s,deg/s,g,g,g,deg C
$COL,TIME,time,tow,week
$UNIT,TIME,s,s,
$COL,VBAT,time,voltage
$UNIT,VBAT,s,volt
$DATA
$IMU,662.639,11.230,-23.681,-32.836,0.04394,0.04882,0.91601,32.48
$MAG,228.409,-0.352,0.166,-0.930,29.5
$IMU,662.641,-6.896,-17.211,-11.047,0.05273,0.06445,1.12353,32.48
$IMU,662.644,-2.014,-0.793,2.441,0.07128,0.07763,1.11718,32.48
$IMU,662.646,1.342,-1.403,3.784,0.06542,0.09814,1.12353,32.48
$IMU,662.648,7.812,-4.821,-6.652,0.07177,0.09716,1.13232,32.48
$IMU,662.651,9.094,0.854,-0.732,0.07714,0.09619,1.13525,32.48
$IMU,662.653,7.141,8.789,11.047,0.06152,0.09619,1.15527,32.48
$IMU,662.655,5.310,16.784,21.911,0.05566,0.11083,1.15869,32.94
$IMU,662.658,16.296,4.089,0.610,0.04443,0.12109,1.15380,32.94
$IMU,662.660,27.954,-7.202,-18.859,0.03955,0.10839,1.15722,32.94
$IMU,662.662,32.592,-4.699,-19.592,0.06591,0.13085,1.15673,32.94
$IMU,662.665,38.696,-1.403,-19.042,0.07324,0.15136,1.16943,32.94
$IMU,662.667,45.288,2.746,-18.249,0.06347,0.14599,1.18505,32.94
$IMU,662.669,51.574,7.202,-18.981,0.05468,0.13867,1.19140,32.94
$IMU,662.672,57.739,11.474,-19.409,0.04443,0.13623,1.19335,32.94
$IMU,662.674,63.720,15.136,-19.592,0.03222,0.14160,1.19677,33.01
$IMU,662.676,68.237,19.531,-19.042,0.01562,0.16406,1.20410,33.01
$IMU,662.679,66.162,25.878,-10.009,0.01367,0.16699,1.20263,33.01
$IMU,662.681,66.528,28.564,-7.812,0.02539,0.16796,1.19873,33.01
$IMU,662.684,67.260,30.151,-8.239,0.03417,0.17333,1.20214,33.01
$IMU,662.686,68.054,31.616,-8.544,0.04003,0.17675,1.20556,33.01
$IMU,662.688,68.847,33.325,-8.728,0.03808,0.18554,1.21093,33.01
$IMU,662.691,70.068,35.217,-9.521,0.04736,0.19335,1.21142,33.01
$IMU,662.693,71.350,37.109,-10.192,0.05761,0.20068,1.21435,33.05
$IMU,662.695,72.509,38.940,-10.375,0.06445,0.20800,1.21679,33.05
$IMU,662.698,73.547,40.405,-10.925,0.06787,0.21777,1.21875,33.05
$IMU,662.700,74.890,41.625,-11.779,0.06933,0.21972,1.21679,33.05
$IMU,662.702,76.416,42.297,-12.207,0.07031,0.22363,1.22070,33.05
$IMU,662.705,77.880,42.480,-12.329,0.07177,0.22753,1.22119,33.05
$IMU,662.707,79.223,42.663,-12.878,0.06689,0.23535,1.21972,33.05
$IMU,662.709,80.627,43.212,-13.366,0.06542,0.25000,1.21923,33.05
$IMU,662.712,81.970,43.334,-13.854,0.06347,0.26855,1.21289,33.03
$IMU,662.714,82.336,43.090,-14.648,0.06738,0.28662,1.21044,33.03
$IMU,662.716,81.420,43.151,-16.235,0.06103,0.30322,1.21533,33.03
$IMU,662.719,79.833,44.128,-18.310,0.07714,0.30322,1.18945,33.03
$IMU,662.721,78.674,44.616,-19.042,0.08593,0.30419,1.17333,33.03
$IMU,662.723,78.369,44.738,-19.470,0.08251,0.31201,1.15869,33.03
$IMU,662.726,78.735,44.311,-19.531,0.08642,0.31396,1.14453,33.03
$IMU,662.728,78.674,43.090,-19.226,0.07177,0.31982,1.13720,33.03
$IMU,662.730,77.819,41.992,-19.409,0.06933,0.32666,1.12646,33.03
$IMU,662.733,76.354,40.710,-19.348,0.05615,0.33496,1.12304,33.03
$IMU,662.735,75.012,39.306,-19.653,0.04248,0.34130,1.12597,33.03
$IMU,662.737,73.730,38.146,-19.775,0.04296,0.33300,1.12500,33.03
$IMU,662.740,72.326,36.621,-19.775,0.03710,0.36181,1.12109,33.03
$IMU,662.742,71.777,35.095,-19.836,0.02197,0.37255,1.12792,33.03
$IMU,662.745,71.472,33.386,-20.019,0.01513,0.38134,1.12792,33.03
$IMU,662.747,71.777,31.250,-20.568,0.01562,0.38964,1.13769,33.03
$IMU,662.749,71.960,29.174,-20.812,0.00927,0.39355,1.14453,32.99
$IMU,662.752,72.448,27.404,-21.057,0.01562,0.39599,1.14160,32.99
$IMU,662.754,73.242,25.207,-20.996,0.02246,0.40625,1.13964,32.99
$IMU,662.756,74.768,23.071,-21.301,0.01513,0.40820,1.14453,32.99
$IMU,662.759,76.538,21.118,-21.911,0.01367,0.41357,1.15234,32.99
$IMU,662.761,78.491,19.042,-22.705,0.00146,0.42480,1.16162,32.99
$IMU,662.763,80.444,17.456,-23.620,-0.00195,0.42578,1.16503,32.99
$IMU,662.766,82.153,15.686,-24.047,-0.00634,0.42968,1.16455,32.99
$IMU,662.768,83.435,13.671,-24.597,-0.01318,0.44384,1.17187,33.03
$IMU,662.770,84.594,11.108,-25.207,-0.01367,0.45019,1.17773,33.03
$IMU,662.773,85.266,8.911,-25.634,-0.00390,0.45117,1.18359,33.03
$IMU,662.775,85.815,6.347,-25.512,0.00000,0.46777,1.18408,33.03
$IMU,662.777,86.242,3.845,-25.817,-0.00537,0.47998,1.19287,33.03
$IMU,662.780,86.181,2.014,-26.184,-0.00683,0.48046,1.19531,33.03
$IMU,662.782,86.303,0.000,-26.184,-0.01123,0.47167,1.19335,33.03
$IMU,662.784,86.425,-2.014,-26.062,-0.00244,0.47705,1.18701,33.03
$IMU,662.787,87.036,-3.662,-26.062,-0.00585,0.48974,1.18505,33.00
$IMU,662.789,88.195,-4.821,-26.306,0.00244,0.49707,1.18652,33.00
$IMU,662.791,89.538,-5.310,-26.611,0.00830,0.50292,1.19677,33.00
$IMU,662.794,90.515,-5.493,-26.611,0.00732,0.50292,1.20947,33.00
$IMU,662.796,91.125,-5.859,-26.489,0.00781,0.52050,1.21289,33.00
$IMU,662.798,91.918,-5.981,-26.489,0.00292,0.53222,1.21826,33.00
$IMU,662.801,93.200,-6.591,-26.306,-0.01123,0.54052,1.22705,33.00
$IMU,662.803,94.360,-6.896,-26.367,-0.01513,0.55419,1.23193,33.00
$IMU,662.806,96.008,-7.995,-26.428,-0.02587,0.57666,1.23632,32.98
$IMU,662.808,96.923,-9.399,-26.245,-0.02929,0.57421,1.24218,32.98
$IMU,662.810,98.144,-10.681,-26.062,-0.02783,0.58691,1.25048,32.98
$IMU,662.813,99.304,-12.023,-25.878,-0.03173,0.58203,1.25439,32.98
$IMU,662.815,100.402,-12.756,-25.695,-0.04248,0.58789,1.24755,32.98
$IMU,662.817,101.623,-12.756,-25.817,-0.04101,0.58496,1.24707,32.98
$IMU,662.820,102.966,-12.756,-25.146,-0.03906,0.58691,1.23486,32.98
$IMU,662.822,104.797,-13.183,-24.414,-0.04052,0.59619,1.22998,32.98
$IMU,662.824,106.384,-14.099,-23.803,-0.03125,0.59716,1.22314,32.99
$IMU,662.827,107.421,-15.625,-22.949,-0.04003,0.59814,1.22167,32.99
$IMU,662.829,107.666,-16.784,-22.399,-0.04833,0.61230,1.21630,32.99
$IMU,662.831,107.727,-17.639,-22.338,-0.06445,0.62451,1.20214,32.99
$IMU,662.834,108.215,-18.554,-22.460,-0.06884,0.62792,1.19140,32.99
$IMU,662.836,108.276,-19.409,-22.155,-0.06591,0.62451,1.18261,32.99
$IMU,662.838,108.459,-21.057,-21.789,-0.06005,0.64013,1.16503,32.99
$IMU,662.841,108.276,-22.949,-21.972,-0.06787,0.63330,1.16845,32.99
$IMU,662.843,108.459,-24.230,-21.789,-0.07373,0.63671,1.15429,33.03
$IMU,662.845,109.741,-25.024,-21.789,-0.07031,0.63623,1.15332,33.03
$IMU,662.848,110.717,-25.634,-22.033,-0.06298,0.63964,1.14355,33.03
$IMU,662.850,111.633,-25.939,-22.583,-0.05419,0.64306,1.13916,33.03
$IMU,662.852,112.487,-25.451,-23.681,-0.04052,0.63427,1.13525,33.03
$IMU,662.855,113.098,-25.329,-24.841,-0.03271,0.62548,1.13525,33.03
$IMU,662.857,113.281,-24.658,-25.756,-0.02294,0.62500,1.11718,33.03
$IMU,662.859,114.440,-24.169,-27.038,-0.01708,0.64843,1.09326,33.03
$IMU,662.862,117.126,-24.353,-28.686,-0.00878,0.64062,1.08935,33.06
$IMU,662.864,119.873,-24.353,-29.907,0.00976,0.62304,1.10009,33.06
$IMU,662.867,121.582,-24.047,-30.639,0.02685,0.63476,1.11328,33.06
$IMU,662.869,121.704,-23.498,-31.555,0.02001,0.63281,1.09863,33.06
$IMU,662.871,121.704,-23.376,-32.043,0.02099,0.63916,1.07910,33.06
$IMU,662.874,122.558,-23.010,-32.226,0.00976,0.63769,1.06005,33.06
$IMU,662.876,124.206,-22.460,-32.714,0.01953,0.63330,1.04736,33.06
$IMU,662.878,126.953,-21.362,-33.142,0.03320,0.63427,1.05224,33.06
$IMU,662.881,128.784,-18.615,-34.423,0.02490,0.64404,1.05468,33.06
$IMU,662.883,129.333,-15.563,-36.071,0.01953,0.66943,1.04101,33.06
$IMU,662.885,130.004,-12.573,-37.170,0.02636,0.67382,1.02880,33.06
$IMU,662.888,130.737,-10.070,-37.414,0.02343,0.67724,1.01611,33.06
$IMU,662.890,131.469,-8.483,-37.536,0.02050,0.67773,1.00830,33.06
$IMU,662.892,131.713,-7.385,-37.414,0.02343,0.67480,0.99755,33.06
$IMU,662.895,131.652,-6.713,-37.475,0.00830,0.68554,0.99462,33.06
$IMU,662.897,131.225,-4.638,-38.818,-0.01562,0.69824,0.98876,33.06
$IMU,662.899,129.882,-1.159,-40.527,-0.00048,0.69580,0.97558,33.06
$IMU,662.902,127.746,1.037,-40.100,0.02490,0.68896,0.96044,33.06
$IMU,662.904,125.183,0.793,-38.208,0.02294,0.68554,0.95507,33.06
$IMU,662.906,122.924,-0.061,-36.132,0.01562,0.68652,0.94335,33.06
$IMU,662.909,121.276,-1.647,-34.057,-0.00537,0.68994,0.93408,33.06
$IMU,662.911,120.544,-4.272,-32.897,-0.02539,0.69238,0.92236,33.06
$IMU,662.913,120.422,-7.629,-32.043,-0.02685,0.68212,0.91064,33.06
$IMU,662.916,120.849,-10.437,-31.250,-0.01074,0.68701,0.89453,33.06
$IMU,662.918,122.619,-12.573,-31.005,0.02050,0.67285,0.89062,33.08
$IMU,662.920,124.938,-11.779,-31.677,0.03906,0.70458,0.88281,33.08
$IMU,662.923,126.464,-10.681,-34.240,0.02978,0.76416,0.85205,33.08
$IMU,662.925,126.098,-12.084,-37.658,0.05664,0.78906,0.83398,33.08
$IMU,662.928,126.098,-15.075,-40.039,0.05761,0.75585,0.82958,33.08
$IMU,662.930,127.685,-15.197,-41.809,0.03320,0.69677,0.85302,33.08
$IMU,662.932,129.760,-11.779,-42.419,0.06103,0.64208,0.88183,33.08
$IMU,662.935,132.202,-7.507,-41.748,0.04052,0.65136,0.87353,33.08
$IMU,662.937,133.911,-5.859,-41.076,-0.00488,0.65917,0.82421,33.08
$IMU,662.939,135.375,-6.652,-39.306,-0.00292,0.65966,0.81298,33.08
$IMU,662.942,137.817,-10.131,-35.034,-0.00195,0.62841,0.80957,33.08
$IMU,662.944,140.686,-13.305,-30.578,-0.01123,0.61914,0.84277,33.08
$IMU,662.946,142.578,-14.831,-27.160,-0.02441,0.63623,0.83203,33.08
$IMU,662.949,146.850,-15.563,-25.817,0.00537,0.64453,0.80712,33.08
$IMU,662.951,151.123,-14.404,-25.451,-0.00244,0.68945,0.81347,33.08
$IMU,662.953,152.587,-15.441,-25.573,-0.01074,0.70556,0.77343,33.08
$IMU,662.956,154.907,-16.418,-25.695,0.02148,0.70214,0.79296,33.09
$IMU,662.958,155.944,-17.089,-25.390,0.02392,0.68798,0.78076,33.09
$IMU,662.960,156.433,-18.005,-25.207,0.03125,0.67724,0.77587,33.09
$IMU,662.963,156.555,-18.737,-24.902,0.06494,0.67968,0.77490,33.09
$IMU,662.965,155.334,-19.287,-23.742,0.07177,0.66552,0.77636,33.09
$IMU,662.967,152.709,-20.629,-22.583,0.05517,0.66503,0.74853,33.09
$IMU,662.970,150.695,-21.728,-22.094,0.04394,0.66992,0.73681,33.09
$IMU,662.972,147.338,-23.254,-21.179,0.04296,0.66552,0.75146,33.09
$IMU,662.974,143.859,-24.902,-20.080,0.04394,0.66064,0.73535,33.02
$IMU,662.977,139.953,-26.550,-18.798,0.03125,0.67041,0.74755,33.02
$IMU,662.979,135.742,-28.564,-18.005,0.01660,0.66357,0.71826,33.02
$IMU,662.981,132.690,-30.029,-17.395,0.01708,0.66992,0.73046,33.02
$IMU,662.984,130.981,-29.846,-15.991,0.05273,0.65185,0.64843,33.02
$IMU,662.986,135.620,-23.254,-13.305,0.07324,0.66601,0.63867,33.02
$IMU,662.989,139.099,-15.625,-11.047,0.04150,0.66503,0.60742,33.02
$IMU,662.991,142.333,-10.803,-10.437,0.09423,0.62500,0.64648,33.02
$IMU,662.993,144.653,-2.868,-3.845,0.36181,0.55664,0.70849,33.07
$IMU,662.996,145.629,3.295,5.615,0.11035,0.74707,0.63964,33.07
$IMU,662.998,143.798,-0.488,3.540,-0.03222,0.77832,0.69042,33.07
$IMU,663.000,138.854,-3.906,1.586,-0.07177,0.72265,0.75000,33.07
$IMU,663.003,134.521,-6.530,3.173,-0.10009,0.66650,0.76318,33.07
$IMU,663.005,132.934,-11.779,5.859,-0.12353,0.63769,0.72998,33.07
$IMU,663.007,133.117,-20.446,6.896,-0.14453,0.64160,0.69726,33.07
$IMU,663.010,133.117,-30.822,6.225,-0.15185,0.64599,0.67138,33.07
$IMU,663.012,131.042,-40.893,5.310,-0.14453,0.65478,0.65917,33.09
$IMU,663.014,128.601,-50.231,4.150,-0.14794,0.69970,0.63769,33.09
$IMU,663.017,127.136,-58.776,1.647,-0.16210,0.72070,0.64208,33.09
$IMU,663.019,125.305,-64.880,-0.061,-0.11083,0.70458,0.65380,33.09
$IMU,663.021,124.206,-68.725,-0.671,-0.10009,0.74560,0.65917,33.09
$IMU,663.024,123.901,-70.861,-2.136,-0.07812,0.80712,0.70507,33.09
$IMU,663.026,123.535,-71.105,-3.356,-0.05957,0.76074,0.69580,33.09
$IMU,663.028,122.558,-70.800,-3.845,-0.05371,0.74365,0.70214,33.09
$IMU,663.031,120.788,-69.824,-4.882,-0.04492,0.74560,0.69384,33.07
$IMU,663.033,120.422,-69.030,-5.981,-0.04492,0.74658,0.67089,33.07
$IMU,663.035,121.215,-68.298,-7.141,-0.04589,0.72949,0.65283,33.07
$IMU,663.038,122.436,-67.016,-8.300,-0.03125,0.72412,0.64697,33.07
$IMU,663.040,123.657,-65.063,-8.911,-0.02001,0.70117,0.64208,33.07
$IMU,663.042,124.511,-63.293,-9.521,-0.01220,0.69873,0.62744,33.07
$IMU,663.045,125.427,-61.889,-10.131,-0.00341,0.70556,0.62744,33.07
$IMU,663.047,125.366,-59.997,-10.742,-0.00683,0.68847,0.62304,33.07
$IMU,663.050,124.389,-58.410,-11.657,0.00195,0.69531,0.61425,33.12
$IMU,663.052,123.474,-57.495,-12.207,0.00488,0.70312,0.59619,33.12
$IMU,663.054,122.619,-56.945,-12.817,0.00097,0.71337,0.59326,33.12
$IMU,663.057,121.215,-56.579,-14.038,0.01660,0.72705,0.61767,33.12
$IMU,663.059,118.896,-56.152,-14.404,0.02734,0.71582,0.61523,33.12
$IMU,663.061,116.882,-56.213,-14.953,0.02539,0.73486,0.60791,33.12
$IMU,663.064,114.624,-55.786,-16.296,0.02490,0.73486,0.61865,33.12
$IMU,663.066,111.816,-54.626,-17.272,0.03808,0.72607,0.60546,33.12
$IMU,663.068,110.046,-53.405,-18.371,0.03320,0.72802,0.58496,33.09
$IMU,663.071,108.581,-52.307,-20.629,0.03564,0.73339,0.58691,33.09
$IMU,663.073,106.689,-50.659,-23.132,0.05468,0.73144,0.58105,33.09
$IMU,663.075,104.858,-48.339,-25.207,0.06396,0.70410,0.57421,33.09
$IMU,663.078,103.088,-45.471,-27.709,0.03125,0.70019,0.56542,33.09
$IMU,663.080,101.318,-41.564,-30.700,0.14941,0.65673,0.59814,33.09
$IMU,663.082,99.060,-32.531,-28.076,0.16552,0.66992,0.58837,33.09
$IMU,663.085,99.426,-26.489,-28.381,0.03222,0.73779,0.50390,33.09
$IMU,663.087,100.646,-24.597,-32.409,0.03662,0.76318,0.52246,33.07
$IMU,663.089,99.121,-20.629,-34.423,0.07031,0.73876,0.55957,33.07
$IMU,663.092,96.496,-15.747,-35.339,0.07324,0.72167,0.56689,33.07
$IMU,663.094,94.482,-10.864,-36.682,0.05078,0.72265,0.56054,33.07
$IMU,663.096,92.590,-6.591,-38.757,0.03515,0.70654,0.56689,33.07
$IMU,663.099,89.660,-1.770,-39.794,0.04980,0.69873,0.57226,33.07
$IMU,663.101,87.280,2.624,-39.855,0.04345,0.71679,0.55615,33.07
$IMU,663.103,86.181,5.676,-40.405,0.04736,0.70410,0.55566,33.07
$IMU,663.106,85.144,8.422,-40.466,0.03466,0.69042,0.56005,33.07
$IMU,663.108,84.350,11.230,-40.100,0.02099,0.68066,0.56298,33.07
$IMU,663.111,83.435,13.977,-39.367,0.02685,0.68652,0.55371,33.07
$IMU,663.113,83.557,15.991,-37.475,0.04394,0.69287,0.53271,33.07
$IMU,663.115,84.838,16.784,-34.423,0.05126,0.68457,0.52978,33.07
$IMU,663.118,86.059,17.456,-31.494,0.05029,0.69433,0.53808,33.07
$IMU,663.120,86.303,18.615,-30.273,0.04052,0.71582,0.55078,33.07
$IMU,663.122,85.998,20.629,-30.334,0.04638,0.70751,0.54736,33.07
$IMU,663.125,85.632,22.399,-31.066,0.01806,0.72851,0.53125,33.07
$IMU,663.127,85.327,22.827,-32.714,0.00781,0.72216,0.52880,33.07
$IMU,663.129,83.740,22.949,-34.362,-0.01513,0.71679,0.53515,33.07
$IMU,663.132,81.604,22.644,-35.705,-0.03173,0.70849,0.51806,33.07
$IMU,663.134,80.200,21.240,-36.437,-0.05761,0.71142,0.50927,33.07
$IMU,663.136,78.125,19.042,-37.048,-0.07275,0.71875,0.54199,33.07
$IMU,663.139,74.279,17.456,-37.658,-0.08398,0.71386,0.53125,33.07
$IMU,663.141,71.044,15.441,-38.513,-0.09960,0.72900,0.51562,33.07
$IMU,663.143,68.847,12.817,-39.733,-0.10058,0.71337,0.49755,33.08
$IMU,663.146,67.138,8.911,-40.527,-0.07568,0.69384,0.47949,33.08
$IMU,663.148,65.551,4.760,-40.466,-0.05517,0.68701,0.48583,33.08
$IMU,663.150,63.415,1.708,-41.015,-0.05468,0.69482,0.47363,33.08
$IMU,663.153,61.462,-0.793,-41.992,-0.04248,0.70166,0.45654,33.08
$IMU,663.155,60.119,-2.746,-41.931,-0.01171,0.71875,0.45214,33.08
$IMU,663.157,58.593,-4.089,-42.175,-0.02392,0.73681,0.43945,33.08
$IMU,663.160,56.701,-6.652,-42.968,-0.03564,0.72900,0.42480,33.08
$IMU,663.162,54.687,-9.887,-43.273,-0.02246,0.73046,0.43017,33.09
$IMU,663.164,52.429,-11.962,-42.968,-0.00683,0.71484,0.44091,33.09
$IMU,663.167,50.659,-12.329,-42.968,-0.00488,0.73144,0.43115,33.09
$IMU,663.169,49.255,-13.244,-43.884,-0.03271,0.72656,0.40966,33.09
$IMU,663.172,48.278,-15.625,-44.677,-0.05371,0.70751,0.40722,33.09
$IMU,663.174,47.424,-18.432,-43.884,-0.05957,0.69140,0.41650,33.09
$IMU,663.176,47.180,-21.545,-41.687,-0.06542,0.68505,0.42333,33.09
$IMU,663.179,47.912,-25.207,-38.940,-0.09375,0.67138,0.41748,33.09
$IMU,663.181,50.109,-30.212,-36.315,-0.09179,0.65966,0.40576,33.03
$IMU,663.183,53.222,-36.132,-33.508,-0.09960,0.64111,0.39990,33.03
$IMU,663.186,55.725,-42.480,-31.250,-0.11376,0.63037,0.41357,33.03
$IMU,663.188,57.617,-47.729,-29.541,-0.08984,0.63330,0.42773,33.03
$IMU,663.190,60.119,-51.391,-27.648,-0.06103,0.62841,0.41992,33.03
$IMU,663.193,62.927,-54.504,-26.245,-0.03808,0.64208,0.40576,33.03
$IMU,663.195,65.124,-56.884,-25.451,-0.03466,0.65527,0.39599,33.03
$IMU,663.197,67.077,-59.570,-24.658,-0.01806,0.65917,0.38232,33.03
$IMU,663.200,68.664,-61.828,-24.169,-0.01855,0.67187,0.37402,33.07
$IMU,663.202,69.274,-63.598,-24.475,-0.02832,0.67187,0.37744,33.07
$IMU,663.204,69.213,-63.903,-24.963,-0.02197,0.68066,0.37646,33.07
$IMU,663.207,69.274,-63.964,-24.963,-0.05273,0.68457,0.34326,33.07
$IMU,663.209,70.251,-65.429,-24.597,-0.07617,0.67480,0.34570,33.07
$IMU,663.211,70.678,-66.955,-23.010,-0.07226,0.62939,0.36474,33.07
$IMU,663.214,71.716,-67.260,-19.531,-0.06396,0.62207,0.38134,33.07
$IMU,663.216,74.523,-66.894,-15.075,-0.02978,0.63085,0.38134,33.07
$IMU,663.218,78.125,-66.040,-9.948,0.00244,0.62841,0.38232,33.08
$IMU,663.221,81.298,-64.819,-5.187,0.00097,0.64843,0.39208,33.08
$IMU,663.223,82.641,-63.720,-2.807,-0.01123,0.67041,0.39892,33.08
$IMU,663.225,82.824,-62.194,-1.525,-0.00292,0.69140,0.39257,33.08
$IMU,663.228,82.702,-60.852,-0.671,0.00634,0.72070,0.38281,33.08
$IMU,663.230,81.604,-59.936,-0.122,0.00488,0.70654,0.39794,33.08
$IMU,663.233,78.186,-58.166,-0.183,-0.03173,0.72363,0.39843,33.08
$IMU,663.235,74.218,-56.457,-0.793,-0.07226,0.74511,0.39941,33.08
$IMU,663.237,69.641,-54.931,-2.136,-0.14062,0.74755,0.40380,33.12
$IMU,663.240,65.979,-54.260,-2.929,-0.12646,0.74853,0.39208,33.12
$IMU,663.242,64.514,-54.565,-2.258,-0.09619,0.73388,0.38525,33.12
$IMU,663.244,63.354,-55.358,-1.220,-0.08740,0.71191,0.38623,33.12
$IMU,663.247,62.072,-56.579,-0.671,-0.09179,0.71435,0.38720,33.12
$IMU,663.249,61.523,-57.006,-1.037,-0.08154,0.71630,0.38867,33.12
$IMU,663.251,61.523,-56.640,-1.464,-0.06542,0.72363,0.39599,33.12
$IMU,663.254,61.950,-55.541,-1.953,-0.04443,0.71875,0.40527,33.12
$IMU,663.256,61.950,-54.016,-1.831,-0.02978,0.72998,0.39306,33.11
$IMU,663.258,61.889,-52.185,-1.831,-0.03466,0.73046,0.39501,33.11
$IMU,663.261,61.401,-49.621,-2.197,-0.02978,0.73730,0.39306,33.11
$IMU,663.263,60.119,-47.607,-2.563,-0.02001,0.72851,0.38378,33.11
$IMU,663.265,58.410,-45.959,-2.136,-0.02783,0.71826,0.36718,33.11
$IMU,663.268,56.884,-44.189,-0.732,-0.01855,0.72265,0.34082,33.11
$IMU,663.270,56.396,-42.663,1.037,-0.02148,0.69482,0.34326,33.11
$IMU,663.272,55.297,-41.564,2.319,-0.04833,0.68212,0.34179,33.11
$IMU,663.275,54.626,-40.771,2.807,-0.06054,0.67480,0.32617,33.10
$IMU,663.277,54.382,-39.062,3.662,-0.07568,0.70507,0.29638,33.10
$IMU,663.279,54.321,-37.170,4.150,-0.09228,0.67285,0.29345,33.10
$IMU,663.282,53.222,-34.973,4.882,-0.04882,0.67041,0.30566,33.10
$IMU,663.284,52.307,-31.616,6.408,-0.03466,0.67578,0.28466,33.10
$IMU,663.286,52.551,-28.869,7.995,-0.03222,0.71582,0.24121,33.10
$IMU,663.289,53.588,-26.428,9.704,-0.01416,0.73486,0.23632,33.10
$IMU,663.291,53.833,-25.329,10.498,0.00000,0.73876,0.25390,33.10
$IMU,663.294,52.124,-24.963,11.108,0.00585,0.74755,0.26416,33.12
$IMU,663.296,50.109,-23.254,12.145,0.01953,0.77880,0.27001,33.12
$IMU,663.298,49.255,-21.423,13.916,0.03710,0.82031,0.25732,33.12
$IMU,663.301,49.804,-19.470,15.991,0.04052,0.81250,0.25732,33.12
$IMU,663.303,50.842,-18.615,18.066,0.06103,0.86279,0.24316,33.12
$IMU,663.305,52.246,-18.676,21.179,0.05224,0.87597,0.24121,33.12
$IMU,663.308,52.062,-17.822,22.338,-0.00683,0.86132,0.27734,33.12
$IMU,663.310,49.621,-15.441,20.629,-0.04199,0.86132,0.28222,33.12
$IMU,663.312,47.790,-12.145,18.859,-0.04931,0.82617,0.26953,33.12
$IMU,663.315,46.569,-9.826,18.066,-0.06054,0.81835,0.24609,33.12
$IMU,663.317,45.959,-7.446,18.432,-0.07470,0.81298,0.21826,33.12
$IMU,663.319,46.020,-5.126,18.554,-0.10449,0.79443,0.20947,33.12
$IMU,663.322,45.593,-2.807,18.249,-0.14013,0.78369,0.21240,33.12
$IMU,663.324,46.020,-0.488,17.639,-0.12695,0.78173,0.18310,33.12
$IMU,663.326,47.973,-0.427,17.639,-0.07812,0.80029,0.15576,33.12
$IMU,663.329,50.048,-2.685,18.493,-0.04394,0.82568,0.15429,33.12
$IMU,663.331,51.330,-5.737,19.470,-0.01269,0.84521,0.16601,33.11
$IMU,663.333,51.757,-8.666,20.019,0.00878,0.86669,0.18310,33.11
$IMU,663.336,51.940,-11.474,20.202,0.02636,0.89941,0.20263,33.11
$IMU,663.338,51.513,-13.305,19.409,0.01074,0.90039,0.23632,33.11
$IMU,663.340,48.583,-12.939,17.028,-0.00292,0.91015,0.24560,33.11
$IMU,663.343,45.898,-11.901,14.892,-0.00781,0.92041,0.22949,33.11
$IMU,663.345,43.640,-11.291,13.183,-0.02148,0.90966,0.20849,33.11
$IMU,663.347,41.687,-11.413,11.840,-0.03222,0.88818,0.19042,33.11
$IMU,663.350,40.283,-11.718,11.169,-0.04003,0.85839,0.18603,33.12
$IMU,663.352,39.611,-11.169,11.230,-0.04736,0.83154,0.18505,33.12
$IMU,663.355,39.855,-10.009,11.779,-0.04785,0.80908,0.17675,33.12
$IMU,663.357,41.015,-9.033,12.451,-0.03808,0.80615,0.16943,33.12
$IMU,663.359,42.297,-8.728,12.939,-0.01025,0.82128,0.15380,33.12
$IMU,663.362,43.457,-8.911,13.732,-0.00146,0.83642,0.14843,33.12
$IMU,663.364,43.457,-8.972,13.793,0.00341,0.85107,0.15576,33.12
$IMU,663.366,42.480,-9.216,13.854,0.01953,0.87841,0.15039,33.12
$IMU,663.369,41.442,-10.070,13.732,0.02001,0.89111,0.15283,33.10
$IMU,663.371,38.757,-10.437,12.573,0.00634,0.89062,0.17236,33.10
$IMU,663.373,35.461,-9.704,11.779,0.00195,0.89453,0.17480,33.10
$IMU,663.376,32.531,-8.666,11.413,-0.00195,0.89257,0.17236,33.10
$IMU,663.378,29.602,-7.080,10.986,0.00146,0.88525,0.16748,33.10
$IMU,663.380,27.160,-5.737,10.681,-0.00195,0.87890,0.16943,33.10
$IMU,663.383,25.085,-4.333,10.437,-0.00146,0.87890,0.18457,33.10
$IMU,663.385,23.620,-2.319,10.070,0.00488,0.89160,0.19482,33.10
$IMU,663.387,22.827,-0.610,9.521,0.00927,0.90185,0.20410,33.13
$IMU,663.390,22.033,0.793,8.789,0.00781,0.90478,0.21484,33.13
$IMU,663.392,21.362,2.014,8.483,0.00390,0.91699,0.21826,33.13
$IMU,663.394,20.996,2.990,8.178,0.00634,0.92285,0.21875,33.13
$IMU,663.397,20.385,3.417,7.812,0.00292,0.93310,0.21386,33.13
$IMU,663.399,19.165,3.784,7.385,-0.00390,0.94140,0.21337,33.13
$IMU,663.401,17.944,3.356,6.713,-0.01220,0.94042,0.21728,33.13
$IMU,663.404,16.540,2.685,6.103,-0.00634,0.93994,0.21533,33.13
$IMU,663.406,15.563,1.953,5.676,-0.01269,0.93945,0.22460,33.14
$IMU,663.408,14.770,1.342,5.065,-0.00585,0.94677,0.22802,33.14
$IMU,663.411,14.343,0.366,4.028,-0.00439,0.95751,0.22509,33.14
$IMU,663.413,13.977,-0.610,2.990,-0.00537,0.95703,0.22949,33.14
$IMU,663.416,13.427,-1.159,2.868,-0.00292,0.96044,0.24121,33.14
$IMU,663.418,13.000,-1.403,2.990,-0.00341,0.96923,0.24169,33.14
$IMU,663.420,12.634,-0.976,2.807,-0.00439,0.97753,0.24560,33.14
$IMU,663.423,12.329,-0.183,2.624,-0.00878,0.98730,0.24365,33.14
$IMU,663.425,12.084,0.671,2.502,-0.02929,0.99023,0.24755,33.16
$IMU,663.427,12.390,2.136,2.441,-0.03076,0.99121,0.24902,33.16
$IMU,663.430,13.183,3.051,2.746,-0.02197,1.00000,0.23779,33.16
$IMU,663.432,14.343,2.746,3.173,-0.02490,1.00537,0.23291,33.16
$IMU,663.434,15.258,2.197,3.112,-0.02880,1.00390,0.23583,33.16
$IMU,663.437,15.991,2.014,2.807,-0.03906,1.00000,0.24365,33.16
$IMU,663.439,16.845,1.525,2.319,-0.03955,0.99462,0.24755,33.16
$IMU,663.441,17.822,0.671,2.136,-0.03857,0.98974,0.24511,33.16
$IMU,663.444,18.676,-0.244,2.136,-0.04443,0.98388,0.23925,33.10
$IMU,663.446,19.348,-1.464,2.319,-0.04638,0.98925,0.23144,33.10
$IMU,663.448,19.592,-2.807,2.746,-0.04589,0.99560,0.23291,33.10
$IMU,663.451,19.531,-3.723,3.112,-0.03759,1.00390,0.22949,33.10
$IMU,663.453,19.165,-4.333,3.601,-0.02832,1.00585,0.22412,33.10
$IMU,663.455,18.615,-5.126,4.089,-0.02343,1.01123,0.21826,33.10
$IMU,663.458,17.944,-5.920,4.699,-0.02636,1.01513,0.21630,33.10
$IMU,663.460,17.333,-6.469,5.004,-0.03076,1.01220,0.21777,33.10
$IMU,663.462,17.272,-7.202,5.249,-0.02636,1.01074,0.21777,33.12
$IMU,663.465,17.578,-8.300,5.371,-0.01953,1.00341,0.21875,33.12
$IMU,663.467,17.883,-9.521,5.676,-0.01904,1.00048,0.21533,33.12
$IMU,663.470,18.432,-10.803,5.676,-0.02343,1.00585,0.21386,33.12
$IMU,663.472,18.981,-11.840,5.249,-0.02441,1.01513,0.21337,33.12
$IMU,663.474,19.531,-12.512,4.821,-0.01562,1.01562,0.21044,33.12
$IMU,663.477,20.202,-13.366,4.943,-0.00781,1.00585,0.21435,33.12
$IMU,663.479,20.996,-14.038,5.126,-0.00146,1.01171,0.21240,33.12
$IMU,663.481,21.606,-14.526,5.004,0.01074,1.01708,0.20654,33.14
$IMU,663.484,21.850,-14.831,4.760,0.00488,1.01123,0.20800,33.14
$IMU,663.486,21.667,-14.709,4.455,-0.00683,1.00634,0.20849,33.14
$IMU,663.488,21.667,-14.282,4.211,-0.01171,1.01318,0.20703,33.14
$IMU,663.491,21.972,-13.916,3.967,-0.00488,1.01757,0.20410,33.14
$IMU,663.493,22.399,-13.610,3.723,-0.00195,1.01416,0.19970,33.14
$IMU,663.495,22.521,-13.488,3.723,0.02001,1.01611,0.18945,33.14
$IMU,663.498,23.010,-14.038,4.272,0.04687,1.01611,0.16992,33.14
$IMU,663.500,23.193,-14.953,4.150,0.02539,1.01660,0.18896,33.10
$IMU,663.502,21.850,-14.099,2.563,0.00927,1.03027,0.20654,33.10
$IMU,663.505,20.996,-12.145,0.976,0.00097,1.02636,0.20458,33.10
$IMU,663.507,20.385,-10.864,0.183,-0.00244,1.01660,0.19482,33.10
$IMU,663.509,19.836,-10.253,0.305,-0.00244,1.01513,0.17919,33.10
$IMU,663.512,19.409,-10.681,0.732,-0.00732,1.02001,0.16943,33.10
$IMU,663.514,19.165,-11.169,0.915,-0.00439,1.02294,0.17236,33.10
$IMU,663.516,19.165,-11.169,1.098,0.00146,1.01757,0.18408,33.10
$IMU,663.519,19.531,-11.047,1.281,0.02050,1.01562,0.19042,33.15
$IMU,663.521,20.141,-11.230,2.197,0.01855,1.00878,0.18994,33.15
$IMU,663.523,20.812,-11.047,2.380,0.01025,1.03222,0.19531,33.15
$IMU,663.526,21.301,-10.498,1.708,0.00878,1.04492,0.20214,33.15
$IMU,663.528,21.423,-9.521,1.403,0.01562,1.03320,0.20312,33.15
$IMU,663.531,21.728,-8.850,1.403,0.02050,1.03320,0.20312,33.15
$IMU,663.533,21.667,-8.544,1.403,0.02636,1.03271,0.20507,33.15
$IMU,663.535,20.935,-8.544,1.831,0.02392,1.04394,0.20117,33.15
$IMU,663.538,20.019,-8.178,1.831,0.01660,1.05468,0.20947,33.14
$IMU,663.540,19.042,-7.568,2.014,0.04589,1.04150,0.21142,33.14
$IMU,663.542,18.310,-6.896,2.868,0.03613,1.04736,0.20605,33.14
$IMU,663.545,18.127,-6.164,2.319,0.03564,1.05664,0.20312,33.14
$IMU,663.547,17.578,-5.004,1.342,0.02832,1.04541,0.21191,33.14
$IMU,663.549,16.967,-2.746,0.183,-0.01318,1.03027,0.22558,33.14
$IMU,663.552,16.418,-0.122,-1.770,0.00195,1.03173,0.20556,33.14
$IMU,663.554,18.005,0.549,-2.197,0.03173,1.03417,0.17382,33.14
$IMU,663.556,18.981,0.366,-2.624,0.02734,1.01660,0.19482,33.17
$IMU,663.559,19.287,0.610,-2.990,0.06201,1.03906,0.18310,33.17
$IMU,663.561,20.751,0.793,-2.624,0.08349,1.03222,0.18505,33.17
$IMU,663.563,21.240,0.366,-1.953,0.07861,1.04443,0.20117,33.17
$IMU,663.566,21.118,1.098,-1.831,0.05957,1.05566,0.21533,33.17
$IMU,663.568,20.751,2.014,-2.197,0.06054,1.06689,0.21191,33.17
$IMU,663.570,21.179,2.441,-1.586,0.07177,1.07958,0.19531,33.17
$IMU,663.573,21.301,2.075,-0.976,0.03613,1.05664,0.21728,33.17
$IMU,663.575,19.836,2.624,-1.525,0.00781,1.05419,0.21923,33.13
$IMU,663.577,19.897,3.540,-2.258,-0.00537,1.04736,0.20849,33.13
$IMU,663.580,20.568,3.906,-2.990,-0.00537,1.03173,0.20214,33.13
$IMU,663.582,21.057,3.784,-3.417,-0.00390,1.02490,0.19873,33.13
$IMU,663.584,21.362,3.845,-3.845,-0.00927,1.01904,0.19287,33.13
$IMU,663.587,21.728,3.540,-4.150,-0.00244,1.01855,0.19726,33.13
$IMU,663.589,21.850,3.356,-4.028,-0.00048,1.01562,0.19824,33.13
$IMU,663.592,21.789,2.990,-3.967,0.00195,1.01269,0.18798,33.13
$IMU,663.594,21.667,1.892,-3.723,-0.00244,1.01904,0.18603,33.16
$IMU,663.596,21.118,1.159,-3.540,-0.00244,1.02197,0.18603,33.16
$IMU,663.599,20.263,0.549,-3.234,-0.00292,1.02636,0.17919,33.16
$IMU,663.601,19.287,-0.244,-2.929,0.00097,1.02685,0.17675,33.16
$IMU,663.603,18.310,-0.793,-2.441,0.00390,1.02197,0.17431,33.16
$IMU,663.606,17.700,-1.220,-1.770,0.00195,1.02099,0.17333,33.16
$IMU,663.608,17.578,-1.831,-1.220,-0.00732,1.01757,0.16796,33.16
$IMU,663.610,17.944,-2.624,-0.854,-0.01074,1.01367,0.16357,33.16
$IMU,663.613,18.798,-3.784,-0.549,-0.00927,1.00976,0.16699,33.13
$IMU,663.615,19.531,-4.272,0.061,0.00048,1.01074,0.17187,33.13
$IMU,663.617,19.897,-4.089,0.732,0.00000,1.01367,0.17236,33.13
$IMU,663.620,20.080,-4.089,1.281,0.00097,1.01367,0.16601,33.13
$IMU,663.622,19.958,-4.028,1.892,0.00146,1.01269,0.16015,33.13
$IMU,663.624,19.470,-4.028,2.319,0.00634,1.01562,0.15332,33.13
$IMU,663.627,18.493,-3.784,2.624,0.00634,1.01904,0.15380,33.13
$IMU,663.629,17.578,-3.479,2.929,0.00781,1.01953,0.15429,33.13
$IMU,663.631,17.028,-3.295,3.051,0.00732,1.01953,0.15039,33.13
$IMU,663.634,17.028,-3.601,3.173,0.00683,1.02343,0.15478,33.13
$IMU,663.636,17.395,-3.723,3.295,0.00732,1.02050,0.15332,33.13
$IMU,663.638,18.005,-4.150,3.295,0.00830,1.02490,0.14746,33.13
$IMU,663.641,18.859,-5.004,3.417,0.01318,1.02197,0.14550,33.13
$IMU,663.643,19.592,-5.554,3.540,0.01562,1.02392,0.14355,33.13
$VBAT,663.644,4.132
$IMU,663.645,19.897,-5.981,3.540,0.02294,1.01855,0.14208,33.13
$IMU,663.648,20.019,-6.286,3.540,0.02392,1.01806,0.14208,33.13
$IMU,663.650,19.897,-6.652,3.417,0.02685,1.01562,0.14306,33.15
$IMU,663.653,19.409,-6.896,3.173,0.02783,1.02197,0.14355,33.15
$IMU,663.655,18.676,-6.469,2.685,0.02978,1.02392,0.14501,33.15
$BARO,663.657,86402.37,32.91
$IMU,663.657,18.188,-6.103,2.441,0.03173,1.02343,0.14501,33.15
$IMU,663.660,18.005,-5.798,2.136,0.02929,1.01855,0.13964,33.15
$IMU,663.662,17.944,-5.432,1.831,0.01611,1.02050,0.12988,33.15
$MAG,663.663,-0.388,-0.465,-0.745,31.7
$IMU,663.664,18.066,-5.432,1.220,0.00830,1.01708,0.12597,33.15
$IMU,663.667,17.700,-5.554,0.976,0.00439,1.01220,0.11962,33.15
$IMU,663.669,17.395,-6.103,0.793,0.00146,1.00683,0.11132,33.15
$IMU,663.671,16.967,-6.713,0.732,0.00537,1.00000,0.10742,33.15
$MAG,663.674,-0.391,-0.478,-0.739,31.8
$IMU,663.674,16.418,-7.263,0.671,0.00878,0.99804,0.10107,33.15
$IMU,663.676,15.991,-7.690,0.732,0.01171,1.00146,0.10156,33.15
$IMU,663.678,15.625,-7.934,0.610,0.01171,1.00781,0.09912,33.15
$IMU,663.681,15.502,-8.239,0.366,0.01220,1.00830,0.10400,33.15
$IMU,663.683,15.441,-8.361,0.122,0.00781,1.00927,0.10498,33.15
$MAG,663.684,-0.391,-0.469,-0.744,31.7
$IMU,663.685,15.502,-8.605,-0.122,0.00585,1.01513,0.10986,33.15
$IMU,663.688,15.808,-9.155,-0.366,0.00488,1.01855,0.10839,33.16
$IMU,663.690,16.235,-10.070,-0.549,0.01025,1.02392,0.11132,33.16
$IMU,663.692,16.418,-10.620,-0.793,0.01123,1.02978,0.11523,33.16
$MAG,663.694,-0.397,-0.475,-0.739,32.0
$IMU,663.695,16.235,-10.498,-1.098,0.01953,1.03369,0.11376,33.16
$IMU,663.697,16.174,-10.620,-1.403,0.01562,1.03027,0.11279,33.16
$IMU,663.699,15.991,-10.681,-1.708,0.01904,1.02783,0.11425,33.16
$HUM,663.702,40.4,33.3
$IMU,663.702,16.113,-10.925,-2.136,0.01855,1.02685,0.11035,33.16
$MAG,663.704,-0.397,-0.472,-0.741,31.8
$IMU,663.704,15.991,-11.047,-2.380,0.02148,1.02490,0.11230,33.16
$IMU,663.706,16.052,-11.047,-2.502,0.02197,1.01660,0.10839,33.17
$IMU,663.709,15.930,-10.742,-2.624,0.02636,1.01855,0.10888,33.17
$IMU,663.711,15.808,-10.253,-2.929,0.03173,1.01318,0.10595,33.17
$MAG,663.714,-0.396,-0.475,-0.745,31.8
$IMU,663.714,15.747,-9.887,-3.234,0.03320,1.01318,0.10302,33.17
$IMU,663.716,15.625,-9.521,-3.662,0.03271,1.01562,0.10009,33.17
$IMU,663.718,15.441,-9.216,-4.089,0.03320,1.01367,0.09375,33.17
$IMU,663.721,15.014,-8.300,-4.638,0.03662,1.01562,0.09667,33.17
$IMU,663.723,14.587,-7.568,-5.126,0.04003,1.01855,0.09521,33.17
$MAG,663.724,-0.393,-0.472,-0.739,31.8
$IMU,663.725,14.160,-6.835,-5.493,0.03515,1.01708,0.10107,33.17
$IMU,663.728,13.610,-6.042,-5.981,0.03759,1.01660,0.10058,33.17
$IMU,663.730,13.427,-5.676,-6.591,0.03515,1.02197,0.09667,33.17
$IMU,663.732,13.122,-5.310,-7.019,0.03125,1.02294,0.10205,33.17
$MAG,663.734,-0.396,-0.475,-0.735,32.0
$IMU,663.735,12.634,-4.577,-7.446,0.02441,1.02392,0.09814,33.17
$IMU,663.737,11.962,-3.784,-7.568,0.01904,1.02783,0.10009,33.17
$IMU,663.739,11.230,-2.990,-7.446,0.01513,1.02832,0.09716,33.17
$IMU,663.742,10.131,-1.953,-7.202,0.00976,1.02636,0.09960,33.17
$MAG,663.744,-0.388,-0.472,-0.744,31.8
$IMU,663.744,9.033,-1.037,-6.958,0.00488,1.01757,0.09912,33.19
$IMU,663.746,8.117,-0.366,-6.652,0.00390,1.01269,0.09814,33.19
$IMU,663.749,7.507,0.000,-6.469,0.00195,1.01171,0.10009,33.19
$IMU,663.751,7.141,0.061,-6.286,0.00097,1.00585,0.10937,33.19
$IMU,663.753,6.958,0.000,-6.286,0.00195,1.00390,0.10302,33.19
$MAG,663.754,-0.387,-0.478,-0.736,31.8
$IMU,663.756,7.080,-0.122,-6.591,0.00146,1.00292,0.10498,33.19
$IMU,663.758,6.958,-0.305,-6.835,0.00000,1.00585,0.10742,33.19
$BARO,663.759,86391.75,32.92
$IMU,663.760,6.835,-0.244,-6.958,-0.00097,1.01074,0.10742,33.19
$IMU,663.763,6.530,-0.244,-7.019,0.00683,1.00781,0.10839,33.14
$MAG,663.765,-0.387,-0.465,-0.732,31.8
$IMU,663.765,6.469,-0.061,-7.141,0.00927,1.01318,0.10742,33.14
$IMU,663.767,6.530,0.427,-7.080,0.00878,1.01367,0.10644,33.14
$IMU,663.770,6.713,0.915,-7.141,0.01025,1.01074,0.11425,33.14
$IMU,663.772,6.958,1.220,-7.263,0.00732,1.00439,0.11181,33.14
$MAG,663.775,-0.390,-0.472,-0.738,32.0
$IMU,663.775,7.202,1.220,-7.141,0.00488,0.99658,0.10742,33.14
$IMU,663.777,7.629,0.732,-6.958,0.00537,0.99169,0.10937,33.14
$IMU,663.779,7.812,0.366,-6.774,0.00878,0.98730,0.10888,33.14
$IMU,663.782,7.934,-0.061,-6.835,0.00634,0.98730,0.10839,33.11
$IMU,663.784,8.056,-0.915,-6.896,0.00634,0.98828,0.10693,33.11
$MAG,663.785,-0.388,-0.483,-0.735,32.0
$IMU,663.786,8.117,-1.525,-6.896,0.00976,0.98828,0.10791,33.11
$IMU,663.789,8.178,-1.892,-6.896,0.01220,0.99365,0.10791,33.11
$IMU,663.791,8.239,-2.380,-6.774,0.00878,0.99462,0.10986,33.11
$IMU,663.793,8.728,-3.051,-6.591,0.00195,0.98925,0.11083,33.11
$MAG,663.795,-0.393,-0.483,-0.727,31.8
$IMU,663.796,9.338,-3.723,-6.408,-0.00488,0.98876,0.11523,33.11
$IMU,663.798,10.192,-4.638,-6.286,-0.00732,0.98779,0.11865,33.11
$IMU,663.800,10.986,-5.310,-6.103,-0.00195,0.98486,0.12060,33.21
$IMU,663.803,11.596,-5.798,-6.103,-0.00097,0.98388,0.12011,33.21
$MAG,663.805,-0.388,-0.487,-0.729,31.8
$IMU,663.805,12.145,-6.164,-6.225,0.00146,0.98291,0.12158,33.21
$IMU,663.807,12.512,-6.347,-6.347,-0.00146,0.98291,0.12255,33.21
$IMU,663.810,12.634,-6.286,-6.408,0.00048,0.97900,0.12109,33.21
$IMU,663.812,12.756,-6.652,-6.530,-0.00097,0.98144,0.11914,33.21
$IMU,663.814,12.817,-6.958,-6.530,-0.00244,0.97998,0.11474,33.21
$MAG,663.815,-0.390,-0.483,-0.733,31.8
$IMU,663.817,12.939,-7.446,-6.530,-0.00341,0.97851,0.10937,33.21
$IMU,663.819,13.000,-7.751,-6.591,0.00097,0.97167,0.11035,33.14
$IMU,663.821,12.878,-8.239,-6.591,0.00097,0.97509,0.10742,33.14
$IMU,663.824,12.756,-8.422,-6.530,0.00439,0.97656,0.10253,33.14
$MAG,663.825,-0.385,-0.486,-0.726,32.1
$IMU,663.826,12.634,-8.789,-6.530,0.00195,0.97314,0.09765,33.14
$IMU,663.828,12.329,-8.911,-6.408,-0.00048,0.97167,0.09521,33.14
$IMU,663.831,11.962,-8.850,-6.347,0.00488,0.97509,0.09423,33.14
$IMU,663.833,11.657,-8.666,-6.286,0.00830,0.97753,0.09179,33.14
$MAG,663.835,-0.387,-0.483,-0.723,32.0
$IMU,663.836,11.596,-8.239,-6.225,0.01025,0.97705,0.09033,33.14
$IMU,663.838,11.657,-7.812,-6.164,0.00732,0.97705,0.09082,33.14
$IMU,663.840,11.718,-7.568,-6.103,0.00585,0.97363,0.08593,33.14
$IMU,663.843,11.962,-7.446,-6.164,-0.00048,0.96728,0.08447,33.14
$MAG,663.845,-0.387,-0.480,-0.726,32.2
$IMU,663.845,11.840,-7.263,-6.286,-0.00341,0.96386,0.08203,33.14
$IMU,663.847,11.718,-7.202,-6.347,-0.00244,0.96582,0.08300,33.14
$IMU,663.850,11.596,-7.263,-6.530,-0.00292,0.96289,0.08447,33.14
$IMU,663.852,11.413,-7.263,-6.591,-0.00341,0.97021,0.08349,33.14
$IMU,663.854,11.352,-7.202,-6.591,-0.00244,0.97265,0.08154,33.14
$MAG,663.856,-0.384,-0.495,-0.730,32.1
$IMU,663.857,11.108,-7.141,-6.652,-0.00195,0.97607,0.08007,33.20
$IMU,663.859,11.108,-7.141,-6.652,-0.00048,0.96923,0.07910,33.20
$BARO,663.860,86394.14,32.92
$IMU,663.861,10.925,-7.141,-6.713,0.00048,0.96679,0.07763,33.20
$IMU,663.864,10.559,-7.141,-6.896,0.00683,0.96728,0.07519,33.20
$MAG,663.866,-0.381,-0.484,-0.732,32.0
$IMU,663.866,10.437,-7.080,-6.958,0.00830,0.96630,0.07714,33.20
$IMU,663.868,10.131,-6.835,-6.774,0.01074,0.96679,0.07763,33.20
$IMU,663.871,9.826,-6.591,-6.713,0.01367,0.97167,0.07666,33.20
$IMU,663.873,9.643,-6.469,-6.408,0.01074,0.97119,0.07177,33.20
$IMU,663.875,9.521,-6.530,-6.225,0.01318,0.97021,0.07421,33.15
$MAG,663.876,-0.379,-0.486,-0.723,32.2
$IMU,663.878,9.216,-6.347,-6.103,0.01074,0.96972,0.07226,33.15
$IMU,663.880,8.789,-6.164,-6.103,0.01171,0.96972,0.07324,33.15
$IMU,663.882,8.361,-6.103,-6.103,0.01269,0.97460,0.07128,33.15
$IMU,663.885,8.056,-5.920,-6.042,0.00781,0.97460,0.06738,33.15
$MAG,663.886,-0.391,-0.487,-0.724,32.1
$IMU,663.887,7.568,-5.981,-6.103,0.00683,0.97314,0.06689,33.15
$IMU,663.889,7.019,-6.042,-6.042,0.00878,0.97216,0.06787,33.15
$IMU,663.892,6.530,-6.042,-5.859,0.00976,0.97265,0.06542,33.15
$IMU,663.894,6.103,-6.103,-5.859,0.00439,0.97265,0.06591,33.15
$MAG,663.896,-0.390,-0.480,-0.723,32.0
$IMU,663.897,5.737,-6.164,-5.737,0.00732,0.97460,0.06884,33.15
$IMU,663.899,5.432,-6.347,-5.615,0.01171,0.97412,0.06933,33.15
$IMU,663.901,5.310,-6.469,-5.432,0.01074,0.97314,0.06689,33.15
$IMU,663.904,5.004,-6.347,-5.371,0.01416,0.97851,0.06542,33.15
$MAG,663.906,-0.388,-0.489,-0.720,32.0
$IMU,663.906,4.821,-6.103,-5.371,0.01660,0.97802,0.06591,33.15
$IMU,663.908,4.760,-5.859,-5.493,0.01611,0.97949,0.06689,33.15
$IMU,663.911,4.699,-5.737,-5.676,0.02099,0.97412,0.06103,33.15
$IMU,663.913,4.943,-5.432,-5.859,0.01269,0.97314,0.05859,33.19
$IMU,663.915,5.004,-4.821,-5.981,0.00683,0.97656,0.06689,33.19
$MAG,663.916,-0.384,-0.484,-0.721,31.8
$IMU,663.918,4.821,-4.577,-5.920,0.00537,0.97656,0.06738,33.19
$IMU,663.920,4.699,-4.638,-5.859,0.00000,0.97705,0.07031,33.19
$IMU,663.922,4.638,-4.638,-5.615,0.00097,0.97998,0.07226,33.19
$IMU,663.925,4.699,-4.943,-5.493,0.00097,0.98291,0.07617,33.19
$MAG,663.926,-0.382,-0.489,-0.721,32.0
$IMU,663.927,4.882,-4.943,-5.493,0.00244,0.98583,0.08300,33.19
$IMU,663.929,5.126,-4.516,-5.737,0.00732,0.99121,0.08007,33.19
$IMU,663.932,5.249,-3.967,-5.859,0.00732,0.99511,0.07958,33.20
$IMU,663.934,5.676,-3.723,-5.981,0.00634,0.99853,0.08056,33.20
$MAG,663.936,-0.382,-0.490,-0.721,32.0
$IMU,663.936,5.798,-3.295,-6.042,0.00146,1.00097,0.08056,33.20
$IMU,663.939,5.798,-2.868,-6.164,-0.00146,0.99804,0.07861,33.20
$IMU,663.941,5.554,-2.563,-5.920,-0.00341,0.99658,0.07519,33.20
$IMU,663.943,5.432,-2.746,-5.859,-0.00683,0.99707,0.07421,33.20
$IMU,663.946,5.310,-3.051,-5.676,-0.00292,0.99316,0.07080,33.20
$MAG,663.947,-0.396,-0.477,-0.724,32.0
$IMU,663.948,5.187,-3.417,-5.615,-0.00634,0.99218,0.06884,33.20
$IMU,663.950,5.004,-3.662,-5.676,-0.00585,0.98828,0.06835,33.17
$IMU,663.953,4.882,-3.784,-5.615,-0.00292,0.98779,0.06787,33.17
$IMU,663.955,4.760,-4.150,-5.493,-0.00195,0.99609,0.06884,33.17
$MAG,663.957,-0.388,-0.487,-0.724,32.0
$IMU,663.958,4.699,-4.455,-5.432,-0.00097,0.99707,0.06689,33.17
$IMU,663.960,4.577,-4.638,-5.432,0.00341,1.00390,0.06884,33.17
$BARO,663.962,86396.77,32.92
$IMU,663.962,4.699,-4.943,-5.371,0.00097,1.00634,0.06835,33.17
$IMU,663.965,4.699,-4.943,-5.371,-0.00390,1.00244,0.07080,33.17
$MAG,663.967,-0.384,-0.492,-0.726,32.0
$IMU,663.967,4.943,-4.882,-5.371,-0.00634,1.00390,0.06884,33.17
$IMU,663.969,5.126,-4.882,-5.249,-0.00732,1.00195,0.06298,33.16
$IMU,663.972,5.310,-5.004,-5.187,-0.00732,1.00195,0.06689,33.16
$IMU,663.974,5.310,-5.187,-4.943,-0.01123,1.00097,0.06542,33.16
$IMU,663.976,5.249,-5.310,-4.760,-0.01367,1.00537,0.06591,33.16
$MAG,663.977,-0.379,-0.495,-0.724,31.8
$IMU,663.979,5.004,-5.432,-4.577,-0.01318,1.00683,0.06640,33.16
$IMU,663.981,4.516,-5.249,-4.394,-0.01269,1.00927,0.06347,33.16
$IMU,663.983,4.150,-5.249,-4.272,-0.01318,1.00732,0.06250,33.16
$IMU,663.986,3.540,-5.310,-4.089,-0.02050,1.01074,0.06250,33.16
$MAG,663.987,-0.385,-0.490,-0.721,32.0
$IMU,663.988,2.990,-5.432,-4.089,-0.02197,1.01171,0.06103,33.14
$IMU,663.990,2.624,-5.554,-4.028,-0.02587,1.00878,0.05859,33.14
$IMU,663.993,2.319,-5.737,-3.967,-0.02734,1.01220,0.05859,33.14
$IMU,663.995,2.197,-5.920,-3.723,-0.02246,1.01123,0.05957,33.14
$MAG,663.997,-0.385,-0.486,-0.717,32.0
$IMU,663.997,2.197,-5.798,-3.479,-0.02587,1.01123,0.06054,33.14
$IMU,664.000,2.319,-5.371,-3.356,-0.01904,1.01269,0.05908,33.14
$IMU,664.002,2.868,-5.126,-3.234,-0.01708,1.01513,0.06347,33.14
$IMU,664.004,3.479,-4.760,-3.112,-0.01660,1.01269,0.05908,33.14
$MAG,664.007,-0.376,-0.487,-0.720,32.0
$IMU,664.007,4.089,-4.272,-2.990,-0.02050,1.01123,0.05664,33.16
$IMU,664.009,4.577,-4.089,-3.051,-0.02539,1.01123,0.05322,33.16
$IMU,664.011,5.004,-4.211,-3.173,-0.02832,1.01123,0.05126,33.16
$IMU,664.014,5.310,-4.577,-3.356,-0.02929,1.00976,0.05371,33.16
$IMU,664.016,5.126,-4.699,-3.356,-0.02783,1.00927,0.05419,33.16
$MAG,664.017,-0.388,-0.492,-0.708,32.0
$IMU,664.019,4.760,-4.760,-3.356,-0.02978,1.00244,0.05322,33.16
$IMU,664.021,4.760,-5.493,-3.234,-0.02880,1.00585,0.05322,33.16
$IMU,664.023,4.699,-6.042,-3.112,-0.02441,1.00683,0.05468,33.16
$IMU,664.026,4.577,-6.408,-2.929,-0.01904,1.00634,0.05615,33.14
$MAG,664.028,-0.375,-0.492,-0.715,32.2
$IMU,664.028,4.638,-6.896,-2.807,-0.01953,1.00537,0.05761,33.14
$IMU,664.030,4.760,-7.080,-2.746,-0.02099,1.00683,0.05419,33.14
$IMU,664.033,4.882,-7.141,-2.685,-0.01904,1.00781,0.05664,33.14
$IMU,664.035,5.126,-7.202,-2.685,-0.02099,1.00878,0.05419,33.14
$IMU,664.037,5.249,-7.141,-2.624,-0.02197,1.01123,0.05664,33.14
$MAG,664.038,-0.387,-0.478,-0.718,32.1
$IMU,664.040,5.493,-7.080,-2.685,-0.02685,1.01074,0.05712,33.14
$IMU,664.042,5.371,-6.591,-2.624,-0.02978,1.00732,0.06005,33.14
$IMU,664.044,5.249,-6.164,-2.441,-0.03173,1.00390,0.05957,33.17
$IMU,664.047,5.371,-5.798,-2.136,-0.03417,1.00732,0.05761,33.17
$MAG,664.048,-0.391,-0.484,-0.717,32.2
$IMU,664.049,5.371,-5.432,-1.708,-0.03369,1.00195,0.05664,33.17
$IMU,664.051,5.371,-5.065,-1.464,-0.04345,1.00097,0.05810,33.17
$IMU,664.054,5.432,-4.516,-1.220,-0.03955,1.00292,0.05712,33.17
$IMU,664.056,5.493,-4.089,-1.098,-0.04492,1.00244,0.05371,33.17
$MAG,664.058,-0.382,-0.486,-0.712,32.0
$IMU,664.058,5.737,-4.028,-0.915,-0.04931,1.00488,0.05078,33.17
$IMU,664.061,5.920,-3.784,-0.793,-0.04980,1.00292,0.04931,33.17
$BARO,664.063,86395.55,32.92
$IMU,664.063,6.103,-3.723,-0.732,-0.05175,1.00488,0.04785,33.19
$IMU,664.065,6.286,-3.784,-0.549,-0.05419,0.99853,0.04687,33.19
$MAG,664.068,-0.388,-0.495,-0.715,32.1
$IMU,664.068,6.408,-3.967,-0.427,-0.04980,0.99658,0.04296,33.19
$IMU,664.070,6.469,-4.455,-0.183,-0.04492,0.99511,0.04443,33.19
$IMU,664.072,6.408,-4.699,0.122,-0.03906,0.99121,0.04394,33.19
$IMU,664.075,6.469,-5.126,0.427,-0.04101,0.99121,0.04345,33.19
$IMU,664.077,6.469,-5.371,0.488,-0.03906,0.99023,0.04345,33.19
$MAG,664.078,-0.387,-0.486,-0.720,32.1
$IMU,664.080,6.408,-5.371,0.671,-0.03759,0.98876,0.03808,33.19
$IMU,664.082,6.530,-5.554,0.793,-0.03369,0.98974,0.03906,33.19
$IMU,664.084,6.530,-5.676,0.854,-0.03222,0.99023,0.03808,33.19
$IMU,664.087,6.347,-5.615,1.098,-0.03417,0.98535,0.03564,33.19
$IMU,664.089,6.103,-5.737,1.281,-0.03515,0.98486,0.03515,33.19
$MAG,664.088,-0.381,-0.490,-0.709,32.1
$IMU,664.091,5.859,-5.798,1.403,-0.03320,0.98730,0.03369,33.19
$IMU,664.094,5.493,-5.859,1.525,-0.03515,0.98193,0.03222,33.19
$IMU,664.096,5.249,-5.981,1.708,-0.03076,0.98242,0.02978,33.19
$MAG,664.098,-0.384,-0.496,-0.714,32.1
$IMU,664.098,5.187,-6.286,1.770,-0.02832,0.98632,0.03466,33.19
$IMU,664.101,5.126,-6.103,1.892,-0.03027,0.98681,0.03906,33.14
$IMU,664.103,5.126,-5.859,2.014,-0.02783,0.99414,0.03955,33.14
$IMU,664.105,5.249,-5.798,2.014,-0.02832,0.99218,0.03710,33.14
$MAG,664.108,-0.379,-0.498,-0.721,32.0
$IMU,664.108,5.310,-5.615,2.075,-0.02734,0.99169,0.03808,33.14
$IMU,664.110,5.554,-5.554,2.014,-0.02636,0.98974,0.03710,33.14
$IMU,664.112,5.615,-5.737,1.953,-0.02734,0.98779,0.03564,33.14
$IMU,664.115,5.493,-5.798,1.953,-0.02343,0.98535,0.03173,33.14
$IMU,664.117,5.126,-5.920,1.892,-0.02392,0.98828,0.03027,33.14
$MAG,664.119,-0.387,-0.486,-0.715,32.1
$IMU,664.119,4.699,-6.103,1.831,-0.02197,0.98828,0.03076,33.15
$IMU,664.122,4.333,-6.286,1.831,-0.02197,0.98974,0.02636,33.15
$IMU,664.124,3.906,-6.469,1.770,-0.02001,0.98681,0.02685,33.15
$IMU,664.126,3.479,-6.469,1.647,-0.02197,0.98632,0.02929,33.15
$MAG,664.129,-0.391,-0.495,-0.714,32.2
$IMU,664.129,3.112,-6.530,1.525,-0.01806,0.98681,0.02978,33.15
$IMU,664.131,2.807,-6.408,1.464,-0.01464,0.99267,0.02734,33.15
$IMU,664.133,2.380,-6.164,1.403,-0.01123,0.99365,0.02636,33.15
$IMU,664.136,2.319,-5.798,1.403,-0.01611,0.99218,0.02246,33.15
$IMU,664.138,2.258,-5.615,1.220,-0.01220,0.99511,0.02246,33.17
$MAG,664.139,-0.381,-0.493,-0.715,32.0
$IMU,664.141,2.380,-5.371,1.098,-0.01269,0.99267,0.02294,33.17
$IMU,664.143,2.502,-5.249,0.793,-0.01269,0.99365,0.02197,33.17
$IMU,664.145,2.258,-4.882,0.427,-0.01220,0.99609,0.01806,33.17
$IMU,664.148,1.953,-4.455,0.061,-0.01562,0.99218,0.01904,33.17
$MAG,664.149,-0.390,-0.484,-0.717,32.1
$IMU,664.150,1.770,-4.333,-0.244,-0.01855,0.99316,0.02001,33.17
$IMU,664.152,1.708,-4.028,-0.488,-0.01953,0.99804,0.02294,33.17
$IMU,664.155,1.708,-3.967,-0.488,-0.02197,0.99951,0.02734,33.17
$IMU,664.157,1.525,-3.356,-0.427,-0.02490,1.00048,0.02636,33.21
$MAG,664.159,-0.390,-0.493,-0.714,32.2
$IMU,664.159,1.586,-3.173,-0.366,-0.03125,1.00146,0.02294,33.21
$IMU,664.162,1.831,-3.417,-0.244,-0.02832,0.99755,0.01806,33.21
$IMU,664.164,1.953,-3.234,-0.305,-0.02734,0.99902,0.01464,33.21
$BARO,664.165,86405.71,32.92
$IMU,664.166,2.136,-3.601,-0.610,-0.02441,0.99511,0.01611,33.21
$MAG,664.169,-0.387,-0.501,-0.717,32.0
$IMU,664.169,1.831,-3.356,-0.793,-0.02392,0.99316,0.01171,33.21
$IMU,664.171,1.647,-3.417,-1.159,-0.02392,0.99414,0.00585,33.21
$IMU,664.173,1.403,-3.540,-1.342,-0.02001,0.99462,0.00390,33.21
$IMU,664.176,1.159,-3.662,-1.464,-0.01464,0.99218,0.00097,33.19
$IMU,664.178,1.037,-3.723,-1.464,-0.01562,0.99218,0.00292,33.19
$MAG,664.179,-0.394,-0.495,-0.706,32.0
$IMU,664.180,0.915,-3.540,-1.464,-0.01123,0.99023,0.00292,33.19
$IMU,664.183,0.915,-3.112,-1.464,-0.00732,0.98974,0.00439,33.19
$IMU,664.185,0.976,-2.746,-1.525,-0.00781,0.99072,0.00244,33.19
$IMU,664.187,0.976,-2.441,-1.708,-0.01123,0.99462,0.00000,33.19
$MAG,664.189,-0.393,-0.489,-0.712,32.1
$IMU,664.190,1.037,-2.441,-1.892,-0.00878,0.99707,0.00244,33.19
$IMU,664.192,0.976,-2.258,-2.136,-0.01757,0.99853,0.00488,33.19
$IMU,664.194,0.915,-2.258,-2.197,-0.01953,1.00000,0.00244,33.16
$IMU,664.197,0.854,-2.136,-2.197,-0.02294,1.00146,0.00390,33.16
$MAG,664.199,-0.381,-0.490,-0.715,32.1
$IMU,664.199,0.793,-1.892,-2.380,-0.02197,1.00537,0.00732,33.16
$IMU,664.202,0.793,-1.647,-2.563,-0.02343,1.00488,0.00878,33.16
$IMU,664.204,0.854,-1.525,-2.563,-0.02685,1.00341,0.00830,33.16
$IMU,664.206,0.976,-1.403,-2.746,-0.02685,1.00000,0.00537,33.16
$IMU,664.209,1.281,-1.770,-2.990,-0.02832,1.00292,0.00781,33.16
$MAG,664.210,-0.384,-0.487,-0.717,32.0
$IMU,664.211,1.159,-1.586,-3.173,-0.03466,1.00146,0.00634,33.16
$IMU,664.213,1.220,-1.647,-3.356,-0.03515,1.00390,0.00390,33.18
$IMU,664.216,1.342,-1.892,-3.479,-0.03466,1.00732,0.00439,33.18
$IMU,664.218,1.464,-2.319,-3.417,-0.03320,1.00000,0.00683,33.18
$MAG,664.220,-0.379,-0.483,-0.706,32.1
$IMU,664.220,1.342,-2.624,-3.112,-0.03564,0.99951,0.00585,33.18
$IMU,664.223,1.037,-2.868,-2.990,-0.03955,1.00732,0.00585,33.18
$IMU,664.225,0.793,-3.356,-3.112,-0.03808,1.00927,0.00781,33.18
$IMU,664.227,0.610,-3.540,-3.112,-0.03857,1.01074,0.01074,33.18
$MAG,664.230,-0.400,-0.486,-0.706,32.0
$IMU,664.230,0.610,-3.784,-3.173,-0.04492,1.00683,0.01220,33.18
$IMU,664.232,0.732,-3.906,-3.295,-0.04736,1.00683,0.00878,33.21
$IMU,664.234,0.976,-4.028,-3.295,-0.04687,1.00537,0.00927,33.21
$IMU,664.237,1.281,-3.906,-3.417,-0.04980,1.00830,0.00927,33.21
$IMU,664.239,1.464,-4.333,-3.356,-0.05175,1.00634,0.01367,33.21
$MAG,664.240,-0.393,-0.489,-0.712,32.1
$IMU,664.241,1.342,-4.272,-3.173,-0.05175,1.00292,0.01708,33.21
$IMU,664.244,1.220,-4.394,-2.990,-0.05322,1.00488,0.01757,33.21
$IMU,664.246,1.037,-4.394,-2.807,-0.05664,1.00732,0.02197,33.21
$IMU,664.248,0.793,-4.638,-2.685,-0.05908,1.00976,0.02148,33.21
$MAG,664.250,-0.387,-0.493,-0.712,32.2
$IMU,664.251,0.854,-4.943,-2.685,-0.05419,1.01269,0.02294,33.18
$IMU,664.253,0.793,-4.882,-2.746,-0.05615,1.01464,0.02783,33.18
$IMU,664.255,0.915,-4.760,-2.746,-0.05322,1.01562,0.03173,33.18
$IMU,664.258,1.159,-4.577,-2.746,-0.05615,1.01513,0.03613,33.18
$MAG,664.260,-0.388,-0.496,-0.708,32.2
$IMU,664.260,1.342,-4.333,-2.624,-0.05322,1.01904,0.03710,33.18
$IMU,664.263,1.647,-4.089,-2.563,-0.05419,1.01806,0.03515,33.18
$IMU,664.265,1.831,-3.723,-2.380,-0.05664,1.01074,0.03613,33.18
$BARO,664.266,86395.96,32.92
$IMU,664.267,1.953,-3.295,-2.319,-0.05615,1.01318,0.03564,33.18
$MAG,664.270,-0.390,-0.495,-0.712,32.2
$IMU,664.270,2.014,-2.624,-2.258,-0.05615,1.01220,0.03417,33.17
$IMU,664.272,2.258,-2.136,-2.258,-0.06005,1.01757,0.03271,33.17
$IMU,664.274,2.380,-1.708,-2.136,-0.05908,1.01513,0.03417,33.17
$IMU,664.277,2.441,-1.159,-2.075,-0.05761,1.01757,0.03222,33.17
$IMU,664.279,2.197,-0.427,-2.075,-0.06005,1.01464,0.02880,33.17
$MAG,664.280,-0.387,-0.492,-0.709,32.2
$IMU,664.281,2.014,-0.244,-2.014,-0.05664,1.01269,0.03320,33.17
$IMU,664.284,1.831,0.183,-2.014,-0.05859,1.00634,0.03222,33.17
$IMU,664.286,1.586,0.793,-1.892,-0.05224,1.00683,0.03417,33.17
$IMU,664.288,1.647,1.037,-1.647,-0.05517,1.00878,0.03808,33.18
$IMU,664.291,1.525,1.403,-1.342,-0.05615,1.01513,0.04150,33.18
$MAG,664.290,-0.388,-0.496,-0.715,32.1
$IMU,664.293,1.342,1.708,-1.098,-0.06152,1.02099,0.04394,33.18
$IMU,664.295,0.976,2.319,-0.915,-0.06152,1.02246,0.04687,33.18
$IMU,664.298,0.671,2.624,-0.732,-0.06005,1.02050,0.04736,33.18
$IMU,664.300,0.610,2.929,-0.610,-0.05957,1.02294,0.05126,33.18
$MAG,664.301,-0.384,-0.493,-0.702,32.2
$IMU,664.302,0.183,3.723,-0.549,-0.05908,1.02148,0.05078,33.18
$IMU,664.305,0.061,4.455,-0.488,-0.05810,1.02441,0.05126,33.18
$IMU,664.307,0.000,5.004,-0.366,-0.05957,1.02197,0.05078,33.19
$IMU,664.309,0.000,5.371,-0.366,-0.05810,1.01904,0.04882,33.19
$MAG,664.311,-0.390,-0.493,-0.706,32.2
$IMU,664.312,0.122,5.798,-0.427,-0.05712,1.00878,0.04931,33.19
$IMU,664.314,0.244,6.103,-0.061,-0.06201,1.00683,0.04882,33.19
$IMU,664.316,0.366,6.103,-0.122,-0.05908,1.01269,0.04589,33.19
$IMU,664.319,0.427,6.286,-0.061,-0.06005,1.01220,0.04931,33.19
$MAG,664.321,-0.390,-0.501,-0.711,32.2
$IMU,664.321,0.427,6.286,0.000,-0.05468,1.01611,0.04833,33.19
$IMU,664.324,0.183,6.469,0.061,-0.05224,1.01269,0.05322,33.19
$IMU,664.326,-0.061,6.713,0.000,-0.05029,1.01806,0.05468,33.18
$IMU,664.328,-0.244,6.835,0.000,-0.04638,1.01611,0.05175,33.18
$MAG,664.331,-0.384,-0.492,-0.708,32.2
$IMU,664.331,-0.366,6.652,0.244,-0.04492,1.01562,0.05371,33.18
$IMU,664.333,-0.549,6.652,0.549,-0.04394,1.01513,0.04931,33.18
$IMU,664.335,-0.732,6.469,0.793,-0.04296,1.01562,0.05664,33.18
$IMU,664.338,-0.854,6.347,0.976,-0.03906,1.01318,0.05029,33.18
$IMU,664.340,-0.976,6.469,0.976,-0.04296,1.01318,0.05029,33.18
$MAG,664.341,-0.387,-0.493,-0.712,32.1
$IMU,664.342,-0.793,6.164,1.037,-0.04150,1.01220,0.04833,33.18
$IMU,664.345,-0.671,5.737,1.220,-0.03662,1.00390,0.04785,33.17
$IMU,664.347,-0.427,5.249,1.525,-0.03417,1.00781,0.04541,33.17
$IMU,664.349,-0.244,4.882,1.770,-0.03320,1.00585,0.04687,33.17
$MAG,664.351,-0.388,-0.484,-0.709,32.2
$IMU,664.352,0.183,4.150,2.014,-0.03369,1.00390,0.04394,33.17
$IMU,664.354,0.610,3.479,2.136,-0.03125,1.00097,0.04296,33.17
$IMU,664.356,0.854,2.868,2.258,-0.02490,1.00292,0.04199,33.17
$IMU,664.359,1.037,2.319,2.319,-0.02148,1.00488,0.04296,33.17
$MAG,664.361,-0.388,-0.499,-0.709,32.0
$IMU,664.361,1.159,1.892,2.441,-0.01660,1.00292,0.04150,33.17
$IMU,664.363,1.220,1.647,2.563,-0.01464,0.99804,0.04003,33.21
$IMU,664.366,1.281,1.403,2.563,-0.01171,0.99804,0.04052,33.21
$BARO,664.368,86392.38,32.93
$IMU,664.368,1.342,1.281,2.441,-0.00781,0.99658,0.04052,33.21
$IMU,664.370,1.342,1.281,2.563,-0.00292,0.99511,0.04101,33.21
$MAG,664.371,-0.382,-0.501,-0.718,32.1
$IMU,664.373,1.220,1.464,2.624,-0.00097,0.99462,0.04296,33.21
$IMU,664.375,0.976,1.953,2.441,-0.00195,0.99560,0.04101,33.21
$IMU,664.377,0.793,2.685,2.319,0.00048,0.99316,0.04052,33.21
$IMU,664.380,0.610,3.540,2.197,0.00097,0.99218,0.03466,33.21
$MAG,664.382,-0.388,-0.487,-0.714,32.2
$IMU,664.382,0.732,3.479,2.014,0.00195,0.99169,0.03515,33.19
$IMU,664.385,0.671,3.662,1.770,0.00048,0.98828,0.03369,33.19
$IMU,664.387,0.488,3.906,1.770,-0.00146,0.98828,0.03027,33.19
$IMU,664.389,0.305,3.967,1.525,-0.00292,0.98681,0.03125,33.19
$MAG,664.392,-0.390,-0.490,-0.712,32.1
$IMU,664.392,0.000,3.906,1.342,-0.00244,0.98779,0.02636,33.19
$IMU,664.394,-0.427,3.845,1.159,-0.00097,0.98828,0.02636,33.19
$IMU,664.396,-0.671,3.662,0.854,-0.00488,0.98535,0.02783,33.19
$IMU,664.399,-0.793,3.356,0.732,-0.00585,0.98242,0.02539,33.19
$IMU,664.401,-0.732,3.173,0.610,-0.00244,0.98193,0.02783,33.19
$MAG,664.402,-0.390,-0.489,-0.711,32.1
$IMU,664.403,-0.610,2.807,0.488,0.00000,0.98388,0.02539,33.19
$IMU,664.406,-0.427,2.563,0.427,0.00195,0.98242,0.02197,33.19
$IMU,664.408,-0.244,2.502,0.244,0.00292,0.98242,0.01904,33.19
$IMU,664.410,0.061,2.624,0.244,0.00390,0.98046,0.01806,33.19
$MAG,664.412,-0.385,-0.490,-0.712,32.1
$IMU,664.413,0.305,2.746,0.061,0.00439,0.98144,0.01757,33.19
$IMU,664.415,0.305,3.112,-0.244,0.00390,0.98486,0.01464,33.19
$IMU,664.417,0.305,3.234,-0.366,0.00292,0.98632,0.01123,33.19
$IMU,664.420,0.305,3.234,-0.549,0.00097,0.98339,0.00830,33.20
$MAG,664.422,-0.384,-0.493,-0.715,32.1
$IMU,664.422,0.122,3.356,-0.854,-0.00097,0.98632,0.00878,33.20
$IMU,664.424,-0.122,3.234,-1.159,-0.00195,0.97753,0.00976,33.20
$IMU,664.427,-0.244,2.868,-1.403,-0.00195,0.97949,0.00781,33.20
$IMU,664.429,-0.366,2.685,-1.708,0.00390,0.98193,0.00830,33.20
$IMU,664.431,-0.305,2.441,-1.953,0.00537,0.97705,0.00976,33.20
$MAG,664.432,-0.391,-0.493,-0.702,32.2
$IMU,664.434,-0.061,2.502,-2.136,0.00390,0.98242,0.01562,33.20
$IMU,664.436,0.122,2.624,-2.258,0.00195,0.98583,0.01806,33.20
$IMU,664.438,0.488,2.502,-2.197,-0.00244,0.98828,0.01904,33.16
$IMU,664.441,0.915,2.380,-2.197,-0.00488,0.98925,0.02001,33.16
$MAG,664.442,-0.390,-0.486,-0.715,32.2
$IMU,664.443,1.525,1.953,-2.380,-0.00927,0.98681,0.01904,33.16
$IMU,664.446,2.075,1.708,-2.502,-0.01220,0.98974,0.01806,33.16
$IMU,664.448,2.502,1.464,-2.685,-0.01171,0.98730,0.01660,33.16
$IMU,664.450,2.990,0.793,-2.929,-0.01025,0.98535,0.01513,33.16
$MAG,664.452,-0.381,-0.490,-0.712,32.0
$IMU,664.453,3.234,0.488,-3.295,-0.00976,0.98144,0.01708,33.16
$IMU,664.455,3.417,0.183,-3.479,-0.00927,0.98339,0.02148,33.16
$IMU,664.457,3.356,0.000,-3.601,-0.00683,0.98535,0.01855,33.17
$IMU,664.460,3.295,0.000,-3.662,-0.00732,0.98046,0.01904,33.17
$MAG,664.462,-0.381,-0.492,-0.712,32.0
$IMU,664.462,3.234,0.183,-3.845,-0.00683,0.97949,0.02001,33.17
$IMU,664.464,3.356,0.183,-3.967,-0.00878,0.98535,0.01757,33.17
$IMU,664.467,3.295,0.305,-4.150,-0.00830,0.98144,0.01562,33.17
$BARO,664.469,86397.94,32.93
$IMU,664.469,3.112,0.244,-4.272,-0.01074,0.98339,0.01513,33.17
$IMU,664.471,2.929,0.427,-4.272,-0.00976,0.98486,0.01708,33.17
$MAG,664.473,-0.382,-0.495,-0.709,32.1
$IMU,664.474,2.746,0.366,-4.455,-0.00927,0.98388,0.01562,33.17
$IMU,664.476,2.502,0.366,-4.516,-0.01220,0.98535,0.01123,33.18
$IMU,664.478,2.075,0.427,-4.577,-0.00683,0.98583,0.01123,33.18
$IMU,664.481,1.831,0.305,-4.638,-0.01025,0.98681,0.01318,33.18
$MAG,664.483,-0.376,-0.496,-0.703,32.1
$IMU,664.483,1.342,0.488,-4.638,-0.01464,0.98632,0.01074,33.18
$IMU,664.485,1.037,0.671,-4.577,-0.01513,0.98437,0.00927,33.18
$IMU,664.488,0.854,0.671,-4.455,-0.01416,0.98144,0.00732,33.18
$IMU,664.490,0.549,0.732,-4.516,-0.02050,0.98095,0.00830,33.18
$IMU,664.492,0.427,0.732,-4.516,-0.02099,0.97949,0.01123,33.18
$MAG,664.493,-0.388,-0.492,-0.709,32.1
$IMU,664.495,0.000,0.793,-4.699,-0.01953,0.97558,0.00732,33.20
$IMU,664.497,-0.305,1.037,-4.577,-0.01855,0.98046,0.00830,33.20
$IMU,664.499,-0.610,0.915,-4.455,-0.01953,0.98339,0.00976,33.20
$IMU,664.502,-1.098,0.915,-4.211,-0.02392,0.98583,0.00976,33.20
$MAG,664.503,-0.388,-0.498,-0.711,32.2
$IMU,664.504,-1.708,0.976,-4.150,-0.02587,0.98876,0.01660,33.20
$IMU,664.507,-2.014,0.854,-4.211,-0.02587,0.99023,0.01953,33.20
$IMU,664.509,-2.258,0.854,-4.211,-0.02832,0.98876,0.01953,33.20
$IMU,664.511,-2.441,0.976,-4.333,-0.02685,0.99316,0.02246,33.20
$MAG,664.513,-0.393,-0.492,-0.711,32.1
$IMU,664.514,-2.685,1.220,-4.394,-0.02929,0.99658,0.01757,33.17
$IMU,664.516,-2.868,1.281,-4.333,-0.02587,0.99755,0.01562,33.17
$IMU,664.518,-3.112,1.464,-4.150,-0.02294,0.99804,0.01855,33.17
$IMU,664.521,-3.479,1.708,-3.906,-0.02294,0.99169,0.01757,33.17
$MAG,664.523,-0.385,-0.499,-0.712,32.2
$IMU,664.523,-3.662,1.892,-3.662,-0.02246,0.99169,0.01757,33.17
$IMU,664.525,-3.845,1.770,-3.662,-0.02441,0.99121,0.01855,33.17
$IMU,664.528,-4.150,1.708,-3.662,-0.02539,0.99609,0.01855,33.17
$IMU,664.530,-4.638,1.892,-3.662,-0.02832,0.99511,0.01904,33.17
$IMU,664.532,-4.882,1.770,-3.540,-0.02880,0.99462,0.02099,33.17
$MAG,664.533,-0.385,-0.496,-0.709,32.3
$IMU,664.535,-5.187,1.586,-3.479,-0.02978,0.99414,0.01953,33.17
$IMU,664.537,-5.493,1.464,-3.356,-0.02929,0.99316,0.01708,33.17
$IMU,664.539,-5.737,1.220,-3.051,-0.02978,0.99902,0.02050,33.17
$IMU,664.542,-6.042,1.342,-2.746,-0.02685,0.99853,0.02050,33.17
$MAG,664.543,-0.387,-0.493,-0.715,32.1
$IMU,664.544,-6.103,1.037,-2.563,-0.02880,1.00048,0.02246,33.17
$IMU,664.546,-5.981,0.793,-2.319,-0.03027,1.00292,0.02148,33.17
$IMU,664.549,-5.798,0.610,-2.197,-0.03173,1.00244,0.02099,33.17
$IMU,664.551,-5.554,0.549,-1.953,-0.03173,1.00195,0.02490,33.19
$IMU,664.553,-5.249,0.305,-1.770,-0.03076,1.00244,0.02539,33.19
$MAG,664.554,-0.387,-0.493,-0.708,32.2
$IMU,664.556,-5.065,0.122,-1.403,-0.03027,1.00097,0.02148,33.19
$IMU,664.558,-4.821,-0.305,-1.098,-0.03076,1.00439,0.02197,33.19
$IMU,664.560,-4.760,-0.488,-0.671,-0.03222,1.00585,0.02246,33.19
$IMU,664.563,-4.760,-0.732,-0.549,-0.03076,1.00488,0.02294,33.19
$MAG,664.564,-0.375,-0.492,-0.718,32.0
$IMU,664.565,-4.577,-0.732,-0.488,-0.03076,1.00976,0.02636,33.19
$IMU,664.568,-4.272,-0.793,-0.549,-0.03222,1.00830,0.02587,33.19
$BARO,664.570,86390.41,32.93
$IMU,664.570,-3.784,-0.915,-0.732,-0.02978,1.00976,0.02734,33.18
$IMU,664.572,-3.295,-0.915,-0.732,-0.03027,1.00732,0.02978,33.18
$MAG,664.574,-0.375,-0.492,-0.718,32.1
$IMU,664.575,-2.746,-1.037,-0.732,-0.03076,1.00537,0.02783,33.18
$IMU,664.577,-2.380,-1.098,-0.610,-0.03369,1.00683,0.02734,33.18
$IMU,664.579,-2.197,-1.037,-0.488,-0.02929,1.00244,0.03271,33.18
$IMU,664.582,-2.258,-0.915,-0.122,-0.02392,0.99804,0.03222,33.18
$MAG,664.584,-0.376,-0.490,-0.715,32.2
$IMU,664.584,-2.258,-0.793,0.244,-0.01757,1.00683,0.03320,33.18
$IMU,664.586,-2.624,-0.488,0.488,-0.01562,1.00488,0.03320,33.18
$IMU,664.589,-2.929,-0.183,0.610,-0.01806,1.00878,0.03613,33.20
$IMU,664.591,-3.051,-0.122,0.671,-0.01611,1.01318,0.04003,33.20
$IMU,664.593,-3.234,0.122,0.793,-0.01757,1.01757,0.04589,33.20
$MAG,664.594,-0.385,-0.498,-0.714,32.2
$IMU,664.596,-3.173,0.427,0.915,-0.01367,1.01367,0.04687,33.20
$IMU,664.598,-2.929,0.671,1.037,-0.01220,1.01904,0.04882,33.20
$IMU,664.600,-2.441,0.793,1.281,-0.01367,1.01367,0.04785,33.20
$IMU,664.603,-1.831,1.037,1.525,-0.01416,1.01562,0.04833,33.20
$MAG,664.604,-0.369,-0.492,-0.714,32.1
$IMU,664.605,-1.281,1.159,1.831,-0.01123,1.01513,0.04931,33.20
$IMU,664.607,-0.793,1.281,2.075,-0.01562,1.01562,0.05371,33.23
$IMU,664.610,-0.488,1.647,2.319,-0.01416,1.01708,0.05224,33.23
$IMU,664.612,-0.305,1.647,2.563,-0.01855,1.01708,0.04833,33.23
$MAG,664.614,-0.385,-0.490,-0.711,32.2
$IMU,664.614,-0.122,1.525,2.502,-0.01416,1.01562,0.04833,33.23
$IMU,664.617,-0.061,1.464,2.563,-0.01318,1.01562,0.04248,33.23
$IMU,664.619,-0.061,1.403,2.563,-0.01123,1.01464,0.04248,33.23
$IMU,664.621,-0.183,1.342,2.685,-0.00927,1.01464,0.04345,33.23
$MAG,664.624,-0.381,-0.489,-0.708,32.1
$IMU,664.624,-0.244,1.525,2.746,-0.00830,1.01220,0.04052,33.23
$IMU,664.626,-0.305,1.464,2.746,-0.00927,1.01220,0.03710,33.20
$IMU,664.629,-0.488,1.342,2.868,-0.00683,1.01367,0.04003,33.20
$IMU,664.631,-0.549,1.403,2.868,-0.00341,1.00683,0.04052,33.20
$IMU,664.633,-0.671,1.525,2.685,-0.00878,1.00537,0.04052,33.20
$MAG,664.634,-0.379,-0.498,-0.709,32.1
$IMU,664.636,-0.732,1.525,2.685,-0.00976,1.00732,0.03759,33.20
$IMU,664.638,-0.732,1.525,2.563,-0.00537,1.00537,0.03906,33.20
$IMU,664.640,-0.732,1.586,2.502,-0.00488,0.99707,0.03710,33.20
$IMU,664.643,-0.427,1.586,2.563,-0.00292,0.99804,0.03564,33.20
$MAG,664.645,-0.388,-0.498,-0.706,32.2
$IMU,664.645,-0.488,1.831,2.563,-0.00390,1.00000,0.03857,33.19
$VBAT,664.645,4.155
$IMU,664.647,-0.610,1.953,2.624,-0.00732,1.01025,0.03710,33.19
$IMU,664.650,-0.976,2.075,2.685,-0.01171,1.01562,0.03369,33.19
$IMU,664.652,-1.159,2.197,2.685,-0.00781,1.01367,0.03222,33.19
$IMU,664.654,-1.159,2.197,2.502,-0.00976,1.01171,0.03076,33.19
$MAG,664.655,-0.382,-0.492,-0.712,32.1
$IMU,664.657,-1.037,2.075,2.258,-0.00683,1.01074,0.02880,33.19
$IMU,664.659,-1.037,1.953,2.075,-0.00146,1.00781,0.02880,33.19
$IMU,664.661,-1.281,2.014,1.892,-0.00146,1.00390,0.02880,33.19
$IMU,664.664,-1.464,2.014,1.831,-0.00048,1.00195,0.02783,33.19
$MAG,664.665,-0.378,-0.486,-0.721,32.0
$IMU,664.666,-1.831,2.075,1.770,0.00390,1.00048,0.02685,33.19
$IMU,664.668,-2.136,1.953,1.892,0.00097,1.00097,0.02441,33.19
$IMU,664.671,-2.624,2.014,1.953,0.00097,1.00097,0.02587,33.19
$BARO,664.672,86396.65,32.93
$IMU,664.673,-2.868,1.892,2.014,0.00048,1.00000,0.02294,33.19
$MAG,664.675,-0.393,-0.493,-0.712,32.1
$IMU,664.675,-3.051,1.770,2.014,-0.00195,0.99902,0.02392,33.19
$IMU,664.678,-3.112,1.464,2.014,-0.00097,0.99902,0.02783,33.19
$IMU,664.680,-3.173,1.220,2.014,0.00000,1.00244,0.02832,33.19
$IMU,664.683,-3.356,1.403,2.258,0.00341,1.00439,0.02978,33.20
$MAG,664.685,-0.387,-0.487,-0.712,32.2
$IMU,664.685,-3.417,1.525,2.380,0.00244,1.00048,0.02978,33.20
$IMU,664.687,-3.356,1.647,2.563,0.00244,1.00097,0.03271,33.20
$IMU,664.690,-3.601,2.014,2.807,0.00146,1.00439,0.03320,33.20
$IMU,664.692,-3.784,2.502,2.868,0.00244,1.00488,0.02978,33.20
$IMU,664.694,-3.723,2.929,2.807,-0.00292,1.00341,0.03222,33.20
$MAG,664.695,-0.387,-0.487,-0.721,32.1
$IMU,664.697,-3.601,3.112,2.624,-0.00878,1.00195,0.02880,33.20
$IMU,664.699,-3.295,3.173,2.624,-0.01025,0.99951,0.03125,33.20
$IMU,664.701,-2.929,3.051,2.746,-0.01318,0.99218,0.03076,33.18
$IMU,664.704,-2.502,2.685,3.112,-0.00781,0.99707,0.03466,33.18
$MAG,664.705,-0.382,-0.490,-0.717,32.1
$IMU,664.706,-2.319,2.502,3.479,-0.00927,0.99707,0.03710,33.18
$IMU,664.708,-1.953,2.258,3.906,-0.00976,0.99707,0.03564,33.18
$IMU,664.711,-1.708,2.319,4.089,-0.01416,0.99658,0.03662,33.18
$IMU,664.713,-1.525,2.502,4.211,-0.01513,0.99902,0.03173,33.18
$MAG,664.715,-0.379,-0.498,-0.711,32.2
$IMU,664.715,-1.220,2.502,4.150,-0.00976,1.00390,0.03027,33.18
$IMU,664.718,-1.098,2.502,4.150,-0.01464,1.00048,0.02880,33.18
$HUM,664.719,40.2,33.3
$IMU,664.720,-1.037,2.319,4.089,-0.01123,1.00439,0.03076,33.22
$IMU,664.722,-0.793,2.380,4.028,-0.00781,1.00439,0.02832,33.22
$MAG,664.725,-0.376,-0.486,-0.714,32.1
$IMU,664.725,-0.610,2.197,3.967,-0.01074,0.99658,0.02734,33.22
$IMU,664.727,-0.366,1.892,4.028,-0.01269,1.00048,0.02734,33.22
$IMU,664.729,-0.183,1.464,4.089,-0.01464,0.99902,0.03027,33.22
$IMU,664.732,-0.183,1.037,4.211,-0.01318,0.99902,0.02978,33.22
$IMU,664.734,0.000,0.854,4.333,-0.01220,0.99658,0.03222,33.22
$MAG,664.736,-0.385,-0.483,-0.721,32.1
$IMU,664.736,0.061,0.549,4.394,-0.00927,0.99853,0.03222,33.22
$IMU,664.739,0.122,0.366,4.394,-0.00732,1.00830,0.03320,33.18
$IMU,664.741,0.000,0.244,4.394,-0.01269,1.01171,0.03271,33.18
$IMU,664.744,-0.244,0.122,4.394,-0.01367,1.01611,0.03808,33.18
$MAG,664.746,-0.375,-0.487,-0.718,32.1
$IMU,664.746,-0.610,-0.122,4.394,-0.01220,1.01855,0.04003,33.18
$IMU,664.748,-0.854,-0.549,4.333,-0.01123,1.02001,0.04345,33.18
$IMU,664.751,-1.037,-0.976,4.028,-0.01269,1.01416,0.04003,33.18
$IMU,664.753,-0.915,-1.281,3.723,-0.00634,1.00634,0.03710,33.18
$IMU,664.755,-0.732,-1.647,3.417,-0.00585,1.00537,0.03759,33.18
$MAG,664.756,-0.385,-0.490,-0.721,32.1
$IMU,664.758,-0.732,-1.831,3.173,-0.00292,1.00488,0.03613,33.18
$IMU,664.760,-0.671,-1.953,2.929,-0.00537,1.00878,0.03173,33.18
$IMU,664.762,-0.732,-2.075,2.624,-0.00488,1.01171,0.02832,33.18
$IMU,664.765,-0.854,-2.441,2.502,-0.00830,1.01123,0.03222,33.18
$MAG,664.766,-0.375,-0.487,-0.718,32.2
$IMU,664.767,-1.159,-2.441,2.441,-0.00781,1.01074,0.03320,33.18
$IMU,664.769,-1.464,-2.441,2.258,-0.00341,1.01367,0.03466,33.18
$IMU,664.772,-1.770,-2.380,2.014,-0.00683,1.01416,0.03710,33.18
$BARO,664.773,86402.33,32.93
$IMU,664.774,-2.075,-2.441,1.831,-0.00537,1.02050,0.04101,33.18
$MAG,664.776,-0.385,-0.489,-0.717,32.1
$IMU,664.776,-2.319,-2.380,1.586,-0.00781,1.02099,0.04443,33.23
$IMU,664.779,-2.624,-2.258,1.403,-0.00390,1.01953,0.04638,33.23
$IMU,664.781,-2.685,-2.136,1.281,-0.00244,1.02197,0.05126,33.23
$IMU,664.783,-2.624,-2.075,1.159,-0.00634,1.01953,0.04687,33.23
$IMU,664.786,-2.441,-2.136,1.281,-0.00390,1.02099,0.04833,33.23
$MAG,664.786,-0.388,-0.487,-0.718,32.2
$IMU,664.788,-2.380,-1.892,1.220,-0.00146,1.02197,0.04980,33.23
$IMU,664.790,-2.319,-1.525,1.159,-0.00439,1.01855,0.04785,33.23
$IMU,664.793,-2.441,-0.915,1.098,-0.00390,1.02148,0.04492,33.23
$IMU,664.795,-2.807,-0.549,0.976,0.00000,1.02197,0.04150,33.19
$MAG,664.796,-0.387,-0.487,-0.721,32.2
$IMU,664.797,-2.990,-0.122,0.732,0.00195,1.01806,0.03955,33.19
$IMU,664.800,-3.112,0.366,0.549,-0.00244,1.01660,0.04052,33.19
$IMU,664.802,-3.173,0.915,0.366,-0.00195,1.01318,0.03955,33.19
$IMU,664.805,-2.990,1.159,0.366,-0.00292,1.01611,0.04003,33.19
$MAG,664.806,-0.385,-0.496,-0.721,32.2
$IMU,664.807,-2.685,1.586,0.366,-0.00537,1.01318,0.04052,33.19
$IMU,664.809,-2.136,1.953,0.305,-0.00976,1.01074,0.04003,33.19
$IMU,664.812,-1.464,2.075,0.244,-0.01074,1.01660,0.03808,33.19
$IMU,664.814,-0.915,2.136,0.305,-0.01464,1.01855,0.03955,33.19
$IMU,664.816,-0.732,2.075,0.122,-0.01220,1.01953,0.03808,33.19
$MAG,664.817,-0.391,-0.487,-0.715,32.2
$IMU,664.819,-0.549,1.892,-0.244,-0.00976,1.01904,0.03710,33.19
$IMU,664.821,-0.549,1.770,-0.427,-0.00878,1.01806,0.03857,33.19
$IMU,664.823,-0.671,1.464,-0.610,-0.00634,1.02001,0.04003,33.19
$IMU,664.826,-0.915,1.281,-0.732,-0.00683,1.02001,0.04052,33.19
$MAG,664.827,-0.388,-0.495,-0.709,32.1
$IMU,664.828,-1.159,1.159,-0.793,-0.00585,1.02197,0.04003,33.19
$IMU,664.830,-1.220,1.037,-0.732,-0.00634,1.01806,0.04541,33.19
$IMU,664.833,-1.220,0.854,-0.549,-0.00878,1.01611,0.04394,33.19
$IMU,664.835,-1.098,0.671,-0.427,-0.00878,1.01611,0.04541,33.19
$MAG,664.837,-0.385,-0.492,-0.714,32.2
$IMU,664.837,-1.037,0.671,-0.305,-0.00781,1.01660,0.04687,33.19
$IMU,664.840,-0.915,0.671,-0.244,-0.00634,1.02050,0.04638,33.19
$IMU,664.842,-0.793,0.488,-0.305,-0.00830,1.02392,0.04394,33.19
$IMU,664.844,-0.549,0.183,-0.427,-0.00878,1.02001,0.04492,33.19
$MAG,664.847,-0.384,-0.493,-0.711,32.1
$IMU,664.847,-0.427,-0.122,-0.610,-0.00732,1.02197,0.04638,33.19
$IMU,664.849,-0.488,-0.122,-0.671,-0.00781,1.01904,0.04589,33.19
$IMU,664.851,-0.488,-0.427,-0.671,-0.01367,1.01757,0.04687,33.24
$IMU,664.854,-0.549,-0.793,-0.671,-0.00830,1.01611,0.04394,33.24
$IMU,664.856,-0.549,-1.159,-0.732,-0.01220,1.01855,0.04345,33.24
$MAG,664.857,-0.387,-0.495,-0.717,32.2
$IMU,664.858,-0.610,-1.708,-0.854,-0.01269,1.02197,0.04052,33.24
$IMU,664.861,-0.671,-2.014,-0.915,-0.01855,1.02001,0.04150,33.24
$IMU,664.863,-0.854,-2.319,-1.037,-0.01708,1.02099,0.03759,33.24
$IMU,664.866,-0.976,-2.563,-1.220,-0.01464,1.02294,0.03906,33.24
$MAG,664.867,-0.393,-0.492,-0.724,32.2
$IMU,664.868,-1.098,-2.746,-1.159,-0.01708,1.01855,0.04052,33.24
$IMU,664.870,-0.854,-2.929,-0.976,-0.02050,1.02099,0.03857,33.22
$IMU,664.873,-0.732,-2.868,-0.976,-0.02246,1.02148,0.03955,33.22
$BARO,664.875,86398.06,32.93
$IMU,664.875,-0.488,-2.746,-0.854,-0.02197,1.01757,0.03759,33.22
$MAG,664.877,-0.390,-0.493,-0.714,32.2
$IMU,664.877,-0.061,-2.868,-0.732,-0.02441,1.02099,0.04003,33.22
$IMU,664.880,0.488,-2.990,-0.610,-0.02636,1.01806,0.04345,33.22
$IMU,664.882,0.854,-3.234,-0.549,-0.02832,1.02343,0.04248,33.22
$IMU,664.884,1.037,-3.417,-0.549,-0.02490,1.02490,0.04052,33.22
$MAG,664.887,-0.388,-0.490,-0.715,32.1
$IMU,664.887,0.976,-3.479,-0.488,-0.02294,1.02490,0.04248,33.22
$IMU,664.889,0.854,-3.540,-0.366,-0.02197,1.02587,0.04687,33.21
$IMU,664.891,0.610,-3.540,-0.244,-0.02246,1.02734,0.04541,33.21
$IMU,664.894,0.366,-3.540,-0.244,-0.01904,1.02539,0.04736,33.21
$IMU,664.896,0.183,-3.479,-0.183,-0.01806,1.02490,0.04589,33.21
$MAG,664.898,-0.384,-0.490,-0.714,32.2
$IMU,664.898,0.061,-3.234,-0.122,-0.01953,1.02734,0.04394,33.21
$IMU,664.901,0.000,-2.929,-0.122,-0.01806,1.02587,0.04199,33.21
$IMU,664.903,0.000,-2.685,0.000,-0.01611,1.02441,0.04541,33.21
$IMU,664.905,0.122,-2.563,0.061,-0.01904,1.02929,0.04492,33.21
$MAG,664.908,-0.388,-0.490,-0.718,32.1
$IMU,664.908,0.305,-2.380,0.122,-0.01855,1.02539,0.04638,33.20
$IMU,664.910,0.488,-2.136,0.183,-0.01611,1.02783,0.04833,33.20
$IMU,664.912,0.610,-1.831,0.366,-0.01806,1.02929,0.04589,33.20
$IMU,664.915,0.793,-1.525,0.488,-0.01855,1.02783,0.04589,33.20
$IMU,664.917,1.037,-1.403,0.793,-0.01855,1.02978,0.04443,33.20
$MAG,664.918,-0.381,-0.484,-0.718,32.1
$IMU,664.919,1.403,-1.342,0.915,-0.01904,1.03222,0.04589,33.20
$IMU,664.922,1.708,-1.159,1.037,-0.01904,1.02832,0.04736,33.20
$IMU,664.924,2.075,-1.098,1.037,-0.01660,1.02978,0.04785,33.20
$IMU,664.927,2.502,-1.098,1.098,-0.01562,1.02734,0.04882,33.18
$MAG,664.928,-0.384,-0.490,-0.714,32.2
$IMU,664.929,2.868,-0.976,1.159,-0.01806,1.03076,0.04980,33.18
$IMU,664.931,3.112,-0.915,1.098,-0.01660,1.02929,0.04980,33.18
$IMU,664.934,3.234,-0.976,1.037,-0.01806,1.02783,0.04541,33.18
$IMU,664.936,3.295,-1.037,1.037,-0.01611,1.02929,0.04443,33.18
$MAG,664.938,-0.385,-0.490,-0.711,32.2
$IMU,664.938,3.234,-1.037,1.098,-0.01513,1.02734,0.04541,33.18
$IMU,664.941,3.112,-1.220,1.037,-0.01611,1.02783,0.04638,33.18
$IMU,664.943,2.990,-1.281,1.037,-0.01171,1.02685,0.04541,33.18
$IMU,664.945,2.929,-1.342,0.854,-0.01171,1.02636,0.04492,33.21
$MAG,664.948,-0.381,-0.490,-0.720,32.2
$IMU,664.948,2.929,-1.464,0.793,-0.01220,1.02490,0.04248,33.21
$IMU,664.950,3.051,-1.586,0.732,-0.01220,1.02441,0.04296,33.21
$IMU,664.952,3.173,-1.770,0.671,-0.01171,1.02685,0.04101,33.21
$IMU,664.955,3.417,-2.014,0.671,-0.01318,1.02685,0.04199,33.21
$IMU,664.957,3.479,-2.075,0.671,-0.01367,1.02978,0.04199,33.21
$MAG,664.958,-0.384,-0.489,-0.717,32.2
$IMU,664.959,3.601,-2.258,0.671,-0.01416,1.02343,0.04345,33.21
$IMU,664.962,3.723,-2.258,0.671,-0.01171,1.02050,0.04394,33.21
$IMU,664.964,3.845,-2.441,0.671,-0.01416,1.02197,0.04052,33.20
$IMU,664.966,4.089,-2.746,0.671,-0.01269,1.01708,0.04150,33.20
$MAG,664.968,-0.391,-0.492,-0.717,32.2
$IMU,664.969,4.211,-3.051,0.610,-0.01220,1.02294,0.04150,33.20
$IMU,664.971,4.150,-3.417,0.671,-0.01025,1.02148,0.04101,33.20
$IMU,664.973,4.150,-3.662,0.793,-0.00976,1.02490,0.04150,33.20
$BARO,664.976,86404.50,32.94
$IMU,664.976,4.150,-3.845,0.854,-0.00976,1.02392,0.03955,33.20
$IMU,664.978,4.089,-4.028,0.915,-0.00732,1.02490,0.04199,33.20
$MAG,664.979,-0.385,-0.483,-0.714,32.0
$IMU,664.980,4.028,-3.723,0.976,-0.00146,1.02343,0.04541,33.20
$IMU,664.983,4.211,-3.479,1.098,-0.00341,1.02148,0.04541,33.24
$IMU,664.985,4.333,-2.929,1.220,-0.00732,1.02050,0.04394,33.24
$IMU,664.988,4.394,-2.685,1.342,-0.00830,1.02050,0.03955,33.24
$MAG,664.989,-0.387,-0.490,-0.724,32.2
$IMU,664.990,4.516,-2.380,1.586,-0.00683,1.01757,0.04101,33.24
$IMU,664.992,4.760,-2.258,1.770,-0.00732,1.01660,0.03710,33.24
$IMU,664.995,4.760,-2.319,1.831,-0.00683,1.01513,0.03857,33.24
$IMU,664.997,4.760,-2.441,1.892,-0.00976,1.01855,0.03515,33.24
$MAG,664.999,-0.385,-0.493,-0.711,32.2
$IMU,664.999,4.699,-2.685,1.892,-0.00683,1.01660,0.03515,33.24
$IMU,665.002,4.699,-3.112,2.075,-0.00927,1.01855,0.03271,33.19
$IMU,665.004,4.760,-3.417,2.136,-0.00878,1.01318,0.03222,33.19
$IMU,665.006,4.638,-3.540,2.136,-0.00830,1.01220,0.03369,33.19
$MAG,665.009,-0.391,-0.490,-0.714,32.2
$IMU,665.009,4.699,-3.723,2.136,-0.00439,1.01318,0.03564,33.19
$IMU,665.011,4.638,-3.784,2.319,-0.00537,1.00976,0.03564,33.19
$IMU,665.013,4.577,-3.784,2.441,-0.00292,1.00878,0.03369,33.19
$IMU,665.016,4.394,-3.723,2.563,-0.00244,1.00683,0.03320,33.19
$IMU,665.018,4.211,-3.417,2.624,-0.00146,1.00732,0.03417,33.19
$MAG,665.019,-0.384,-0.493,-0.718,32.2
$IMU,665.020,4.028,-3.234,2.685,-0.00341,1.00878,0.02978,33.25
$IMU,665.023,3.845,-3.234,2.563,-0.00781,1.00732,0.02929,33.25
$IMU,665.025,3.784,-3.540,2.563,-0.00732,1.01220,0.02978,33.25
$IMU,665.027,3.723,-3.723,2.502,-0.00585,1.01220,0.03271,33.25
$MAG,665.029,-0.388,-0.486,-0.708,32.1
$IMU,665.030,3.540,-3.723,2.563,-0.00683,1.01269,0.03076,33.25
$IMU,665.032,3.356,-3.723,2.624,-0.00390,1.01220,0.03076,33.25
$IMU,665.034,3.295,-3.906,2.624,-0.00292,1.01171,0.03369,33.25
$IMU,665.037,3.295,-4.028,2.624,-0.00439,1.00732,0.03564,33.25
$IMU,665.039,3.295,-4.211,2.746,-0.00878,1.00732,0.03417,33.23
$MAG,665.039,-0.397,-0.493,-0.708,32.2
$IMU,665.041,3.479,-4.577,2.746,-0.00683,1.00683,0.03515,33.23
$IMU,665.044,3.662,-4.821,2.746,-0.00537,1.01025,0.03466,33.23
$IMU,665.046,3.906,-4.943,2.807,-0.00292,1.00634,0.03320,33.23
$MAG,665.049,-0.384,-0.496,-0.714,32.2
$IMU,665.049,3.967,-5.187,2.807,-0.00537,1.01123,0.03466,33.23
$IMU,665.051,4.028,-5.371,2.929,-0.00195,1.01660,0.03320,33.23
$IMU,665.053,3.906,-5.432,2.868,-0.00048,1.01416,0.03369,33.23
$IMU,665.056,3.845,-5.493,2.990,0.00341,1.01318,0.03710,33.23
$IMU,665.058,3.662,-5.554,3.051,0.00244,1.01367,0.03417,33.20
$MAG,665.059,-0.391,-0.487,-0.712,32.2
$IMU,665.060,3.479,-5.676,3.173,0.00146,1.01416,0.03662,33.20
$IMU,665.063,3.234,-5.859,3.234,0.00195,1.01562,0.03662,33.20
$IMU,665.065,3.051,-5.859,3.234,0.00097,1.01318,0.03515,33.20
$IMU,665.067,2.868,-5.798,3.234,0.00439,1.01269,0.03515,33.20
$MAG,665.070,-0.387,-0.490,-0.717,32.2
$IMU,665.070,2.807,-5.920,3.234,-0.00097,1.01464,0.03466,33.20
$IMU,665.072,2.746,-6.103,3.356,0.00390,1.01562,0.03369,33.20
$IMU,665.074,2.807,-6.164,3.417,-0.00488,1.01367,0.03613,33.20
$IMU,665.077,2.929,-6.103,3.662,-0.00537,1.00927,0.03417,33.23
$BARO,665.078,86390.48,32.94
$IMU,665.079,3.234,-6.164,3.906,-0.00830,1.01416,0.03564,33.23
$MAG,665.080,-0.393,-0.493,-0.717,32.2
$IMU,665.081,3.540,-6.347,3.967,-0.00634,1.01318,0.03955,33.23
$IMU,665.084,3.906,-6.469,3.967,-0.00927,1.01171,0.04150,33.23
$IMU,665.086,3.906,-6.591,3.967,-0.00683,1.00927,0.04003,33.23
$IMU,665.088,3.967,-6.652,3.845,-0.00732,1.01123,0.03857,33.23
$MAG,665.090,-0.388,-0.492,-0.709,32.1
$IMU,665.091,4.089,-6.530,3.906,-0.00390,1.00878,0.03710,33.23
$IMU,665.093,3.845,-6.225,3.906,-0.00683,1.00976,0.03613,33.23
$IMU,665.095,3.784,-5.981,4.028,-0.00683,1.00927,0.03027,33.20
$IMU,665.098,3.723,-5.981,4.089,-0.00683,1.00390,0.02978,33.20
$MAG,665.100,-0.391,-0.493,-0.711,32.2
$IMU,665.100,3.845,-5.981,4.089,-0.00634,1.00292,0.02832,33.20
$IMU,665.102,3.784,-5.859,4.028,-0.00195,1.00341,0.02929,33.20
$IMU,665.105,3.723,-5.737,4.028,-0.00488,1.00292,0.02734,33.20
$IMU,665.107,3.601,-5.493,4.089,0.00000,1.00488,0.02929,33.20
$MAG,665.110,-0.400,-0.499,-0.715,32.2
$IMU,665.110,3.295,-5.126,4.089,0.00439,1.00732,0.03125,33.20
$IMU,665.112,2.868,-4.455,4.028,0.00292,1.00878,0.03027,33.20
$IMU,665.114,2.685,-3.845,4.028,0.00195,1.00830,0.02783,33.18
$IMU,665.117,2.441,-3.295,3.906,0.00000,1.00976,0.03271,33.18
$IMU,665.119,2.380,-2.929,3.845,-0.00244,1.00683,0.02929,33.18
$MAG,665.120,-0.394,-0.496,-0.705,32.2
$IMU,665.121,2.441,-2.685,3.784,-0.00341,1.00390,0.02832,33.18
$IMU,665.124,2.502,-2.624,3.723,-0.00585,1.00146,0.02880,33.18
$IMU,665.126,2.502,-2.441,3.601,-0.00927,0.99658,0.02978,33.18
$IMU,665.128,2.380,-2.380,3.479,-0.01171,0.99609,0.02783,33.18
$MAG,665.130,-0.393,-0.489,-0.703,32.2
$IMU,665.131,2.258,-2.380,3.417,-0.00732,0.99804,0.02343,33.18
$IMU,665.133,2.197,-2.319,3.356,-0.00976,1.00195,0.02539,33.21
$IMU,665.135,2.014,-2.380,3.173,-0.00927,1.00244,0.02539,33.21
$IMU,665.138,1.892,-2.380,3.112,-0.01171,1.00390,0.02343,33.21
$MAG,665.140,-0.396,-0.496,-0.715,32.1
$IMU,665.140,1.831,-2.136,2.929,-0.00732,1.00439,0.02441,33.21
$IMU,665.142,1.831,-1.770,2.807,-0.01220,1.00244,0.02539,33.21
$IMU,665.145,1.953,-1.647,2.685,-0.01416,0.99658,0.02734,33.21
$IMU,665.147,2.136,-1.342,2.563,-0.01025,0.99902,0.02685,33.21
$IMU,665.149,2.380,-1.098,2.563,-0.00927,1.00097,0.02929,33.21
$MAG,665.151,-0.403,-0.490,-0.711,32.2
$IMU,665.152,2.502,-0.671,2.319,-0.00830,1.00097,0.03076,33.19
$IMU,665.154,2.380,-0.305,2.075,-0.01269,0.99853,0.02783,33.19
$IMU,665.156,2.075,0.000,1.831,-0.01074,1.00292,0.02392,33.19
$IMU,665.159,1.525,0.305,1.708,-0.01220,1.00244,0.02490,33.19
$MAG,665.161,-0.397,-0.498,-0.714,32.2
$IMU,665.161,1.098,0.366,1.464,-0.01074,0.99707,0.02099,33.19
$IMU,665.163,0.732,0.427,1.342,-0.01171,0.99755,0.01904,33.19
$IMU,665.166,0.610,0.488,1.281,-0.00927,0.99804,0.02197,33.19
$IMU,665.168,0.610,0.671,1.037,-0.00878,0.99951,0.02197,33.19
$MAG,665.171,-0.394,-0.495,-0.711,32.2
$IMU,665.171,0.671,0.793,0.976,-0.01171,0.99951,0.02099,33.28
$IMU,665.173,0.366,1.342,1.037,-0.01171,1.00000,0.02197,33.28
$IMU,665.175,0.122,1.525,0.915,-0.01123,0.99853,0.02197,33.28
$IMU,665.178,-0.244,1.586,0.854,-0.01318,0.99902,0.02197,33.28
$BARO,665.179,86393.26,32.93
$IMU,665.180,-0.610,1.647,0.854,-0.01513,0.99804,0.02197,33.28
$MAG,665.181,-0.403,-0.495,-0.706,32.2
$IMU,665.182,-0.671,1.403,0.671,-0.01708,0.99267,0.01660,33.28
$IMU,665.185,-0.610,1.159,0.732,-0.01513,0.99511,0.01708,33.28
$IMU,665.187,-0.549,1.037,0.854,-0.01757,0.99755,0.02294,33.28
$IMU,665.189,-0.610,1.037,0.915,-0.01611,1.00146,0.02441,33.18
$IMU,665.192,-0.671,1.037,1.098,-0.01367,1.00048,0.03027,33.18
$MAG,665.191,-0.393,-0.496,-0.706,32.2
$IMU,665.194,-0.793,1.159,1.159,-0.01123,1.00634,0.02685,33.18
$IMU,665.196,-0.854,1.220,1.098,-0.01171,1.00341,0.02539,33.18
$IMU,665.199,-0.915,1.037,1.037,-0.01269,1.00097,0.02099,33.18
$MAG,665.201,-0.397,-0.489,-0.703,32.2
$IMU,665.201,-0.854,0.793,0.976,-0.01660,0.99951,0.02246,33.18
$IMU,665.203,-0.854,0.427,0.976,-0.01660,1.00000,0.02246,33.18
$IMU,665.206,-0.854,-0.061,0.915,-0.01367,0.99951,0.02587,33.18
$IMU,665.208,-0.854,-0.427,0.854,-0.01464,1.00097,0.02539,33.23
$IMU,665.210,-0.915,-0.671,0.915,-0.01513,1.00048,0.02392,33.23
$MAG,665.211,-0.394,-0.490,-0.711,32.1
$IMU,665.213,-0.915,-0.915,0.915,-0.01464,0.99462,0.02246,33.23
$IMU,665.215,-0.793,-1.281,1.037,-0.01562,0.99804,0.02539,33.23
$IMU,665.217,-0.549,-1.647,1.098,-0.00927,1.00097,0.02539,33.23
$IMU,665.220,-0.183,-1.953,1.098,-0.01074,1.00341,0.02734,33.23
$MAG,665.221,-0.399,-0.501,-0.709,32.2
$IMU,665.222,0.000,-1.953,1.037,-0.01171,1.00390,0.03076,33.23
$IMU,665.224,0.244,-1.953,0.976,-0.01269,1.00683,0.02880,33.23
$IMU,665.227,0.427,-1.953,0.854,-0.01123,1.00537,0.03222,33.24
$IMU,665.229,0.488,-2.014,0.793,-0.01171,1.00097,0.03173,33.24
$MAG,665.231,-0.393,-0.489,-0.706,32.1
$IMU,665.232,0.488,-2.014,0.671,-0.00927,1.00439,0.03417,33.24
$IMU,665.234,0.244,-1.708,0.610,-0.00927,1.00488,0.03466,33.24
$IMU,665.236,0.000,-1.647,0.488,-0.01123,1.00927,0.03369,33.24
$IMU,665.239,-0.122,-1.525,0.366,-0.01318,1.00488,0.03564,33.24
$IMU,665.241,-0.061,-1.586,0.244,-0.01318,0.99951,0.03466,33.24
$MAG,665.242,-0.397,-0.493,-0.714,32.2
$IMU,665.243,0.061,-1.586,0.244,-0.01025,1.00439,0.03125,33.24
$IMU,665.246,0.122,-1.464,0.183,-0.00976,1.00390,0.03271,33.21
$IMU,665.248,0.183,-1.159,0.183,-0.01171,1.00244,0.03515,33.21
$IMU,665.250,0.183,-1.220,0.122,-0.00976,1.00292,0.03125,33.21
$MAG,665.252,-0.393,-0.495,-0.709,32.1
$IMU,665.253,0.122,-1.159,0.061,-0.00976,1.00292,0.03271,33.21
$IMU,665.255,0.000,-1.037,-0.061,-0.00439,1.00097,0.03271,33.21
$IMU,665.257,-0.244,-0.610,-0.305,-0.00439,1.00390,0.03320,33.21
$IMU,665.260,-0.610,-0.122,-0.488,-0.00390,1.00830,0.03564,33.21
$MAG,665.262,-0.393,-0.492,-0.712,32.2
$IMU,665.262,-0.854,0.183,-0.732,-0.00683,1.01074,0.03369,33.21
$IMU,665.264,-1.037,0.488,-0.976,-0.00683,1.01123,0.03173,33.24
$IMU,665.267,-1.159,0.610,-1.098,-0.01123,1.00976,0.03027,33.24
$IMU,665.269,-1.281,0.854,-1.403,-0.01171,1.00878,0.02880,33.24
$IMU,665.271,-1.220,1.281,-1.525,-0.01367,1.00244,0.03320,33.24
$MAG,665.272,-0.390,-0.498,-0.711,32.2
$IMU,665.274,-1.220,1.647,-1.525,-0.01464,1.00341,0.03222,33.24
$IMU,665.276,-1.159,1.770,-1.464,-0.01269,1.00976,0.03125,33.24
$IMU,665.278,-1.403,2.136,-1.342,-0.01318,1.00976,0.03076,33.24
$BARO,665.281,86398.82,32.94
$IMU,665.281,-1.647,2.441,-1.403,-0.01855,1.01513,0.03222,33.24
$MAG,665.282,-0.391,-0.493,-0.717,32.1
$IMU,665.283,-2.014,2.685,-1.342,-0.01562,1.01513,0.03515,33.22
$IMU,665.285,-2.197,2.807,-1.525,-0.01562,1.01757,0.03320,33.22
$IMU,665.288,-2.197,2.807,-1.708,-0.01367,1.01660,0.03369,33.22
$IMU,665.290,-2.136,3.112,-1.953,-0.00683,1.01416,0.03271,33.22
$MAG,665.292,-0.394,-0.486,-0.706,32.2
$IMU,665.293,-1.953,3.417,-2.197,-0.00781,1.00927,0.03466,33.22
$IMU,665.295,-1.770,3.662,-2.197,-0.00830,1.00439,0.03173,33.22
$IMU,665.297,-1.525,3.784,-2.075,-0.01367,1.00439,0.02832,33.22
$IMU,665.300,-1.464,3.784,-1.953,-0.01562,1.00390,0.02734,33.22
$MAG,665.302,-0.397,-0.499,-0.715,32.1
$IMU,665.302,-1.403,3.417,-1.953,-0.01025,1.01025,0.02734,33.24
$IMU,665.304,-1.403,3.173,-1.892,-0.01123,1.00878,0.02636,33.24
$IMU,665.307,-1.586,3.112,-1.892,-0.01660,1.00976,0.02148,33.24
$IMU,665.309,-1.647,2.868,-2.014,-0.01074,1.01416,0.02343,33.24
$IMU,665.311,-1.708,2.624,-2.197,-0.01220,1.01074,0.02490,33.24
$MAG,665.312,-0.399,-0.492,-0.711,32.1
$IMU,665.314,-1.770,2.441,-2.258,-0.01318,1.00830,0.02832,33.24
$IMU,665.316,-1.770,2.197,-2.258,-0.01611,1.01269,0.02734,33.24
$IMU,665.318,-1.892,2.136,-2.197,-0.01269,1.01513,0.02880,33.24
$IMU,665.321,-2.014,1.892,-2.136,-0.01318,1.01464,0.03027,33.23
$MAG,665.323,-0.400,-0.489,-0.709,32.2
$IMU,665.323,-1.953,1.525,-1.953,-0.01464,1.01123,0.02783,33.23
$IMU,665.325,-1.892,1.220,-2.075,-0.01367,1.01123,0.02832,33.23
$IMU,665.328,-1.831,0.732,-1.953,-0.01220,1.01220,0.03222,33.23
$IMU,665.330,-1.831,0.488,-2.014,-0.01123,1.01660,0.02832,33.23
$IMU,665.332,-1.892,0.183,-1.953,-0.01220,1.01660,0.03076,33.23
$MAG,665.333,-0.394,-0.489,-0.712,32.2
$IMU,665.335,-2.014,-0.244,-1.831,-0.01025,1.01318,0.02734,33.23
$IMU,665.337,-2.136,-0.671,-1.770,-0.00878,1.01855,0.02783,33.23
$IMU,665.339,-2.197,-0.915,-1.708,-0.00585,1.01318,0.02734,33.19
$IMU,665.342,-2.197,-1.037,-1.647,-0.00390,1.01562,0.02734,33.19
$MAG,665.343,-0.397,-0.490,-0.709,32.2
$IMU,665.344,-2.197,-1.037,-1.647,-0.00390,1.01123,0.02978,33.19
$IMU,665.346,-2.136,-1.098,-1.647,-0.00097,1.01464,0.02539,33.19
$IMU,665.349,-2.075,-0.976,-1.647,0.00000,1.00878,0.02685,33.19
$IMU,665.351,-2.197,-0.793,-1.647,-0.00244,1.01513,0.02539,33.19
$MAG,665.353,-0.396,-0.490,-0.705,32.3
$IMU,665.354,-2.136,-0.427,-1.525,-0.00195,1.01562,0.02783,33.19
$IMU,665.356,-2.075,-0.183,-1.281,0.00048,1.01708,0.02685,33.19
$IMU,665.358,-2.014,-0.122,-1.159,-0.00146,1.01953,0.02783,33.27
$IMU,665.361,-1.953,-0.122,-1.159,-0.00292,1.01904,0.02880,33.27
$MAG,665.363,-0.396,-0.498,-0.706,32.2
$IMU,665.363,-1.892,-0.244,-1.098,-0.00634,1.01806,0.02783,33.27
$IMU,665.365,-1.892,-0.244,-1.098,-0.00683,1.01464,0.02978,33.27
$IMU,665.368,-1.831,-0.122,-1.037,-0.00488,1.01464,0.02783,33.27
$IMU,665.370,-1.770,-0.061,-0.854,-0.00683,1.01220,0.02392,33.27
$IMU,665.372,-1.464,0.000,-0.732,-0.00537,1.00927,0.02294,33.27
$MAG,665.373,-0.394,-0.484,-0.708,32.1
$IMU,665.375,-1.098,0.000,-0.610,-0.00439,1.01171,0.02539,33.27
$IMU,665.377,-0.976,0.427,-0.427,-0.00146,1.00585,0.02441,33.23
$IMU,665.379,-0.854,1.037,-0.366,0.00195,1.00390,0.02587,33.23
$BARO,665.382,86396.57,32.94
$IMU,665.382,-0.732,1.342,-0.427,-0.00292,1.00585,0.02441,33.23
$MAG,665.383,-0.396,-0.495,-0.708,32.2
$IMU,665.384,-0.793,1.586,-0.427,-0.00146,1.01123,0.02490,33.23
$IMU,665.386,-0.915,1.525,-0.305,-0.00341,1.00927,0.02001,33.23
$IMU,665.389,-0.976,1.342,-0.244,-0.00683,1.01171,0.02148,33.23
$IMU,665.391,-1.037,1.098,-0.122,-0.00683,1.01025,0.02685,33.23
$MAG,665.393,-0.394,-0.493,-0.712,32.2
$IMU,665.393,-1.159,1.098,-0.061,-0.00195,1.01513,0.02246,33.23
$IMU,665.396,-1.159,0.915,-0.183,0.00244,1.01855,0.02734,33.22
$IMU,665.398,-1.220,0.854,-0.305,0.00341,1.02343,0.02880,33.22
$IMU,665.400,-1.281,0.915,-0.244,0.00634,1.02099,0.03076,33.22
$MAG,665.403,-0.402,-0.499,-0.712,32.2
$IMU,665.403,-1.220,0.915,-0.244,0.00732,1.02001,0.03125,33.22
$IMU,665.405,-1.342,1.220,-0.183,0.01074,1.01660,0.02978,33.22
$IMU,665.407,-1.342,1.342,-0.122,0.01171,1.01660,0.03466,33.22
$IMU,665.410,-1.342,1.586,-0.061,0.00976,1.01611,0.02880,33.22
$IMU,665.412,-1.403,1.708,0.000,0.00488,1.01562,0.03027,33.22
$MAG,665.414,-0.400,-0.498,-0.706,32.2
$IMU,665.415,-1.403,1.953,0.000,0.00439,1.01318,0.02880,33.22
$IMU,665.417,-1.281,2.075,-0.061,0.00732,1.01416,0.02685,33.22
$IMU,665.419,-1.159,1.831,-0.061,0.00634,1.01220,0.02685,33.22
$IMU,665.422,-0.915,1.586,-0.183,0.00976,1.01318,0.02734,33.22
$MAG,665.424,-0.400,-0.493,-0.708,32.2
$IMU,665.424,-0.732,1.464,-0.305,0.00634,1.01416,0.02832,33.22
$IMU,665.426,-0.610,1.281,-0.305,0.00585,1.01123,0.02783,33.22
$IMU,665.429,-0.488,1.342,-0.366,0.00488,1.01660,0.02685,33.22
$IMU,665.431,-0.488,1.342,-0.427,0.00390,1.01611,0.02783,33.22
$IMU,665.433,-0.366,1.342,-0.549,0.00683,1.01464,0.02929,33.25
$MAG,665.434,-0.396,-0.490,-0.706,32.2
$IMU,665.436,-0.427,1.464,-0.427,0.01171,1.01513,0.03027,33.25
$IMU,665.438,-0.488,1.586,-0.305,0.01416,1.01562,0.02880,33.25
$IMU,665.440,-0.732,1.708,-0.244,0.01123,1.01708,0.03173,33.25
$IMU,665.443,-0.793,1.770,-0.366,0.01269,1.01611,0.03076,33.25
$MAG,665.444,-0.397,-0.498,-0.718,32.1
$IMU,665.445,-0.915,1.708,-0.305,0.00732,1.01464,0.03271,33.25
$IMU,665.447,-0.976,1.708,-0.427,0.01171,1.01464,0.03271,33.25
$IMU,665.450,-1.098,1.708,-0.488,0.00927,1.01318,0.03027,33.25
$IMU,665.452,-1.220,1.831,-0.488,0.01171,1.01416,0.02783,33.21
$MAG,665.454,-0.394,-0.496,-0.706,32.2
$IMU,665.454,-1.281,1.770,-0.488,0.01367,1.01416,0.02636,33.21
$IMU,665.457,-1.464,1.647,-0.366,0.01318,1.01708,0.03125,33.21
$IMU,665.459,-1.525,1.586,-0.427,0.01171,1.01757,0.03125,33.21
$IMU,665.461,-1.647,1.525,-0.366,0.01074,1.01171,0.02978,33.21
$MAG,665.464,-0.385,-0.496,-0.717,32.2
$IMU,665.464,-1.586,1.647,-0.488,0.00830,1.01513,0.03369,33.21
$IMU,665.466,-1.403,1.708,-0.305,0.00634,1.01367,0.03271,33.21
$IMU,665.468,-1.098,1.464,-0.183,0.00390,1.01708,0.03417,33.21
$IMU,665.471,-0.732,1.342,-0.061,0.00195,1.02001,0.03710,33.20
$IMU,665.473,-0.427,1.403,0.061,0.00195,1.01953,0.03466,33.20
$MAG,665.474,-0.397,-0.507,-0.712,32.2
$IMU,665.476,-0.244,1.281,0.183,0.00048,1.02197,0.03759,33.20
$IMU,665.478,-0.305,1.403,-0.061,0.00292,1.02392,0.03662,33.20
$IMU,665.480,-0.305,1.342,-0.122,0.00244,1.02197,0.03906,33.20
$BARO,665.483,86389.68,32.94
$IMU,665.483,-0.305,1.159,-0.122,0.00927,1.02197,0.04052,33.20
$MAG,665.484,-0.391,-0.486,-0.711,32.2
$IMU,665.485,-0.244,1.159,-0.122,0.00732,1.01904,0.04101,33.20
$IMU,665.487,-0.183,1.281,0.000,0.01171,1.01855,0.04248,33.20
$IMU,665.490,-0.061,1.159,0.122,0.00732,1.01708,0.04150,33.25
$IMU,665.492,0.000,0.976,0.244,0.00634,1.01855,0.03613,33.25
$IMU,665.494,0.061,0.549,0.305,0.00634,1.01611,0.03662,33.25
$MAG,665.495,-0.391,-0.496,-0.709,32.1
$IMU,665.497,-0.122,0.488,0.183,0.00781,1.01806,0.03417,33.25
$IMU,665.499,-0.366,0.488,0.244,0.00878,1.01416,0.03320,33.25
$IMU,665.501,-0.549,0.244,0.427,0.01074,1.01708,0.03417,33.25
$IMU,665.504,-0.610,0.000,0.549,0.00292,1.01562,0.03173,33.25
$MAG,665.505,-0.388,-0.498,-0.715,32.2
$IMU,665.506,-0.488,-0.366,0.732,0.00634,1.01367,0.03613,33.25
$IMU,665.508,-0.305,-0.671,0.976,0.00683,1.01611,0.03369,33.19
$IMU,665.511,-0.122,-0.732,0.976,0.00634,1.01708,0.03320,33.19
$IMU,665.513,-0.183,-0.488,1.098,0.00830,1.01611,0.03369,33.19
$MAG,665.515,-0.393,-0.490,-0.711,32.2
$IMU,665.515,-0.183,-0.366,1.098,0.00634,1.01708,0.03515,33.19
$IMU,665.518,-0.122,-0.427,0.976,0.00683,1.01416,0.03222,33.19
$IMU,665.520,-0.183,-0.427,1.037,0.00488,1.01708,0.02978,33.19
$IMU,665.522,-0.305,-0.610,1.037,0.00683,1.01513,0.03027,33.19
$MAG,665.525,-0.396,-0.492,-0.714,32.2
$IMU,665.525,-0.427,-0.732,1.159,0.00537,1.01318,0.03271,33.19
$IMU,665.527,-0.427,-0.854,1.098,0.00976,1.01318,0.03076,33.20
$IMU,665.529,-0.488,-0.793,1.037,0.00878,1.01611,0.02880,33.20
$IMU,665.532,-0.427,-0.488,1.098,0.00830,1.01562,0.02880,33.20
$IMU,665.534,-0.122,-0.366,0.915,0.00927,1.01513,0.02978,33.20
$MAG,665.535,-0.394,-0.493,-0.714,32.2
$IMU,665.537,0.061,-0.122,0.915,0.00927,1.01074,0.02929,33.20
$IMU,665.539,0.305,-0.183,0.854,0.00390,1.00781,0.03076,33.20
$IMU,665.541,0.488,-0.244,0.915,0.00439,1.00878,0.02783,33.20
$IMU,665.544,0.427,-0.305,0.915,0.00292,1.00732,0.03076,33.20
$MAG,665.545,-0.391,-0.484,-0.708,32.2
$IMU,665.546,0.366,-0.549,0.793,0.00830,1.01123,0.02832,33.21
$IMU,665.548,0.183,-0.671,0.732,0.01171,1.01367,0.02880,33.21
$IMU,665.551,0.000,-0.732,0.610,0.00878,1.01220,0.02978,33.21
$IMU,665.553,-0.061,-0.793,0.427,0.01367,1.01367,0.03027,33.21
$MAG,665.555,-0.394,-0.501,-0.715,32.2
$IMU,665.555,-0.183,-0.671,0.305,0.01757,1.01611,0.03271,33.21
$IMU,665.558,-0.244,-0.244,0.244,0.01171,1.01562,0.03125,33.21
$IMU,665.560,-0.244,0.000,0.061,0.01416,1.01171,0.03320,33.21
$IMU,665.562,-0.366,0.183,0.000,0.01367,1.01220,0.03027,33.21
$MAG,665.565,-0.390,-0.502,-0.714,32.2
$IMU,665.565,-0.366,0.427,-0.183,0.01269,1.01123,0.03417,33.25
$IMU,665.567,-0.427,0.732,-0.305,0.01074,1.01025,0.03027,33.25
$IMU,665.569,-0.427,0.793,-0.427,0.00830,1.01025,0.03173,33.25
$IMU,665.572,-0.366,0.915,-0.671,0.00732,1.01269,0.03564,33.25
$IMU,665.574,-0.244,1.037,-0.854,0.00390,1.01171,0.03613,33.25
$MAG,665.575,-0.402,-0.490,-0.706,32.2
$IMU,665.576,-0.183,1.159,-0.976,0.00878,1.01318,0.03515,33.25
$IMU,665.579,-0.122,1.281,-1.037,0.00830,1.01269,0.03808,33.25
$IMU,665.581,-0.122,1.647,-1.159,0.01025,1.01171,0.04052,33.25
$IMU,665.583,-0.122,1.892,-1.220,0.00927,1.00976,0.04003,33.21
$BARO,665.585,86397.18,32.94
$MAG,665.586,-0.390,-0.495,-0.711,32.2
$IMU,665.586,-0.183,2.136,-1.403,0.01171,1.01269,0.03613,33.21
$IMU,665.588,-0.183,2.319,-1.525,0.00732,1.00390,0.03466,33.21
$IMU,665.590,-0.305,2.319,-1.586,0.01025,1.00048,0.03222,33.21
$IMU,665.593,-0.427,2.685,-1.586,0.01269,1.00244,0.03417,33.21
$IMU,665.595,-0.732,3.112,-1.525,0.00781,1.00683,0.03417,33.21
$MAG,665.596,-0.387,-0.483,-0.717,32.2
$IMU,665.598,-1.098,3.295,-1.403,0.00000,1.00781,0.03369,33.21
$IMU,665.600,-1.464,3.479,-1.342,-0.00244,1.00878,0.02929,33.21
$IMU,665.602,-1.770,3.417,-1.464,-0.00292,1.00830,0.03173,33.17
$IMU,665.605,-2.136,3.479,-1.647,-0.00341,1.00488,0.03710,33.17
$MAG,665.606,-0.399,-0.496,-0.720,32.2
$IMU,665.607,-2.563,3.540,-1.770,-0.00292,1.00097,0.03906,33.17
$IMU,665.609,-2.746,3.601,-2.014,-0.00292,1.00634,0.03857,33.17
$IMU,665.612,-2.868,3.479,-2.014,-0.00292,1.00390,0.03369,33.17
$IMU,665.614,-2.807,3.112,-1.831,-0.00732,1.00781,0.03613,33.17
$MAG,665.616,-0.390,-0.484,-0.711,32.1
$IMU,665.616,-2.624,2.868,-1.647,-0.00830,1.00732,0.03515,33.17
$IMU,665.619,-2.502,2.563,-1.464,-0.01171,1.00390,0.03515,33.17
$IMU,665.621,-2.136,2.075,-1.342,-0.01220,1.00488,0.03466,33.21
$IMU,665.623,-2.014,1.647,-1.281,-0.01025,1.00488,0.03515,33.21
$MAG,665.626,-0.390,-0.487,-0.714,32.1
$IMU,665.626,-1.892,1.159,-1.159,-0.01025,1.00390,0.03466,33.21
$IMU,665.628,-1.831,0.793,-1.220,-0.00927,1.00195,0.03466,33.21
$IMU,665.630,-1.831,0.427,-1.220,-0.01562,1.00146,0.03417,33.21
$IMU,665.633,-1.708,0.061,-1.220,-0.01367,1.00146,0.03125,33.21
$IMU,665.635,-1.708,-0.427,-1.098,-0.01269,1.00292,0.02929,33.21
$MAG,665.636,-0.393,-0.490,-0.718,32.2
$IMU,665.637,-1.647,-0.793,-0.915,-0.01367,1.00537,0.02685,33.21
$IMU,665.640,-1.525,-1.159,-0.854,-0.00830,1.00927,0.02539,33.21
$IMU,665.642,-1.525,-1.403,-0.671,-0.00732,1.00830,0.02490,33.21
$IMU,665.644,-1.525,-1.464,-0.488,-0.00292,1.00390,0.02392,33.21
$IMU,665.647,-1.586,-1.464,-0.427,-0.00292,1.00341,0.02490,33.21
$MAG,665.646,-0.390,-0.492,-0.726,32.2
$IMU,665.649,-1.647,-1.586,-0.366,-0.00585,1.00488,0.02685,33.21
$IMU,665.651,-1.586,-1.770,-0.366,-0.00439,1.01123,0.02636,33.21
$IMU,665.654,-1.708,-2.075,-0.305,-0.00341,1.01123,0.02734,33.21
$MAG,665.656,-0.394,-0.496,-0.714,32.2
$IMU,665.656,-1.708,-2.136,-0.244,-0.00292,1.01220,0.02734,33.21
$VBAT,665.657,4.137
$IMU,665.659,-1.770,-2.258,-0.244,0.00048,1.01318,0.03125,33.23
$IMU,665.661,-1.770,-2.075,-0.183,-0.00048,1.01513,0.03222,33.23
$IMU,665.663,-1.586,-1.708,-0.122,-0.00195,1.01562,0.03222,33.23
$IMU,665.666,-1.281,-1.403,-0.061,-0.00048,1.01367,0.03222,33.23
$MAG,665.667,-0.393,-0.489,-0.709,32.2
$IMU,665.668,-1.098,-0.976,0.000,0.00048,1.01367,0.03369,33.23
$IMU,665.670,-0.976,-0.854,-0.061,-0.00390,1.01611,0.03125,33.23
$IMU,665.673,-0.732,-0.732,0.000,-0.00732,1.01513,0.03173,33.23
$IMU,665.675,-0.427,-0.732,0.000,-0.01171,1.01611,0.03076,33.23
$MAG,665.677,-0.393,-0.495,-0.717,32.2
$IMU,665.677,0.000,-0.915,0.061,-0.00878,1.01464,0.03320,33.23
$IMU,665.680,0.488,-1.037,0.122,-0.00878,1.01367,0.03271,33.23
$IMU,665.682,0.915,-0.915,0.183,-0.00878,1.01220,0.03417,33.23
$IMU,665.684,1.220,-0.671,0.183,-0.00585,1.01220,0.03369,33.23
$BARO,665.686,86402.62,32.94
$MAG,665.687,-0.387,-0.492,-0.717,32.2
$IMU,665.687,1.464,-0.305,0.183,-0.00781,1.00976,0.03320,33.23
$IMU,665.689,1.403,0.061,0.183,-0.00683,1.00878,0.03417,33.23
$IMU,665.691,1.159,0.305,0.061,-0.00732,1.01123,0.03369,33.23
$IMU,665.694,0.915,0.427,-0.061,-0.00878,1.01318,0.03027,33.23
$IMU,665.696,0.610,0.366,-0.122,-0.00585,1.01318,0.02832,33.24
$MAG,665.697,-0.396,-0.490,-0.715,32.2
$IMU,665.698,0.244,0.427,-0.183,-0.00292,1.01367,0.03515,33.24
$IMU,665.701,-0.122,0.610,-0.305,-0.00537,1.01025,0.03417,33.24
$IMU,665.703,-0.427,0.610,-0.305,-0.00390,1.00976,0.03417,33.24
$IMU,665.705,-0.671,0.610,-0.427,-0.00146,1.01074,0.03710,33.24
$MAG,665.707,-0.393,-0.496,-0.715,32.5
$IMU,665.708,-0.854,0.610,-0.488,-0.00146,1.01123,0.03564,33.24
$IMU,665.710,-0.976,0.671,-0.610,0.00000,1.00830,0.03662,33.24
$IMU,665.712,-0.915,0.793,-0.610,-0.00341,1.01220,0.03906,33.24
$IMU,665.715,-0.915,0.976,-0.610,-0.00439,1.00976,0.03808,33.21
$MAG,665.717,-0.388,-0.490,-0.718,32.2
$IMU,665.717,-0.854,1.098,-0.488,-0.00439,1.01416,0.03906,33.21
$IMU,665.720,-0.976,1.037,-0.488,0.00048,1.01318,0.04052,33.21
$IMU,665.722,-1.098,0.976,-0.671,-0.00048,1.01562,0.04345,33.21
$IMU,665.724,-1.281,1.220,-0.793,-0.00292,1.01220,0.04003,33.21
$MAG,665.727,-0.394,-0.493,-0.709,32.2
$IMU,665.727,-1.403,1.342,-0.793,-0.00585,1.01171,0.04101,33.21
$IMU,665.729,-1.281,1.403,-0.854,-0.00683,1.01318,0.04541,33.21
$IMU,665.731,-1.342,1.403,-0.854,-0.00878,1.01367,0.04492,33.21
$IMU,665.734,-1.220,1.037,-0.793,-0.00927,1.01464,0.04394,33.24
$HUM,665.736,40.1,33.3
$IMU,665.736,-1.159,0.854,-0.732,-0.01123,1.01220,0.04101,33.24
$MAG,665.737,-0.388,-0.490,-0.715,32.2
$IMU,665.738,-1.342,0.671,-0.915,-0.01318,1.00976,0.04296,33.24
$IMU,665.741,-1.342,0.427,-1.037,-0.00976,1.00585,0.04003,33.24
$IMU,665.743,-1.403,0.061,-1.037,-0.01220,1.00878,0.03906,33.24
$IMU,665.745,-1.281,-0.183,-0.976,-0.01074,1.00976,0.04101,33.24
$MAG,665.747,-0.384,-0.493,-0.717,32.1
$IMU,665.748,-1.220,-0.549,-0.671,-0.00878,1.01025,0.04248,33.24
$IMU,665.750,-1.281,-0.610,-0.488,-0.01611,1.01513,0.04638,33.24
$IMU,665.752,-1.403,-0.854,-0.427,-0.01074,1.01171,0.04589,33.23
$IMU,665.755,-1.281,-1.098,-0.366,-0.01123,1.01367,0.04589,33.23
$IMU,665.757,-1.281,-1.159,-0.427,-0.00927,1.01123,0.04736,33.23
$MAG,665.758,-0.397,-0.498,-0.699,32.2
$IMU,665.759,-1.403,-1.159,-0.488,-0.00634,1.00927,0.04345,33.23
$IMU,665.762,-1.342,-1.159,-0.366,-0.00488,1.00830,0.04296,33.23
$IMU,665.764,-1.281,-1.159,-0.122,-0.00195,1.00683,0.04345,33.23
$IMU,665.766,-1.342,-1.159,0.061,-0.00341,1.00878,0.04199,33.23
$MAG,665.768,-0.396,-0.499,-0.714,32.2
$IMU,665.769,-1.403,-1.098,0.183,-0.00732,1.01220,0.04492,33.23
$IMU,665.771,-1.403,-0.915,0.305,-0.00830,1.01171,0.03906,33.23
$IMU,665.773,-1.281,-1.037,0.366,-0.00585,1.01708,0.04199,33.23
$IMU,665.776,-1.159,-1.098,0.366,-0.00195,1.01367,0.04003,33.23
$MAG,665.778,-0.388,-0.496,-0.714,32.3
$IMU,665.778,-1.159,-1.037,0.244,-0.00732,1.01367,0.03857,33.23
$IMU,665.781,-1.037,-1.037,0.244,-0.00439,1.01513,0.04003,33.23
$IMU,665.783,-0.793,-1.159,0.305,-0.00195,1.01416,0.04199,33.23
$IMU,665.785,-0.610,-0.915,0.366,-0.00292,1.01611,0.04150,33.23
$BARO,665.788,86400.57,32.94
$MAG,665.788,-0.397,-0.490,-0.712,32.2
$IMU,665.788,-0.488,-0.793,0.427,-0.00439,1.01562,0.03906,33.23
$IMU,665.790,-0.427,-0.488,0.427,-0.00830,1.01464,0.03564,33.22
$IMU,665.792,-0.305,-0.366,0.488,-0.00927,1.01318,0.03564,33.22
$IMU,665.795,-0.244,-0.305,0.610,-0.01074,1.00537,0.03515,33.22
$IMU,665.797,-0.061,-0.488,0.671,-0.01074,1.00927,0.03759,33.22
$MAG,665.798,-0.385,-0.487,-0.714,32.1
$IMU,665.799,0.122,-0.793,0.610,-0.00976,1.00732,0.03710,33.22
$IMU,665.802,0.305,-1.159,0.549,-0.00781,1.01220,0.03857,33.22
$IMU,665.804,0.244,-1.159,0.610,-0.00732,1.01220,0.03955,33.22
$IMU,665.806,0.183,-1.098,0.610,-0.00244,1.01513,0.03857,33.22
$MAG,665.808,-0.394,-0.492,-0.717,32.2
$IMU,665.809,0.000,-0.671,0.549,-0.00439,1.01611,0.03955,33.20
$IMU,665.811,-0.366,-0.244,0.488,-0.00488,1.01660,0.03857,33.20
$IMU,665.813,-0.488,-0.183,0.427,-0.00634,1.01416,0.03613,33.20
$IMU,665.816,-0.610,-0.122,0.427,-0.00634,1.01171,0.03710,33.20
$MAG,665.818,-0.394,-0.489,-0.714,32.2
$IMU,665.818,-0.732,-0.183,0.366,-0.00781,1.00732,0.03613,33.20
$IMU,665.820,-0.732,-0.244,0.305,-0.00927,1.00634,0.03710,33.20
$IMU,665.823,-0.732,-0.427,0.183,-0.00976,1.01367,0.03808,33.20
$IMU,665.825,-0.732,-0.366,0.183,-0.01025,1.01660,0.03466,33.20
$IMU,665.827,-0.732,-0.244,0.305,-0.00830,1.01660,0.03759,33.26
$MAG,665.828,-0.399,-0.483,-0.711,32.2
$IMU,665.830,-0.610,-0.305,0.305,-0.00683,1.01757,0.03955,33.26
$IMU,665.832,-0.549,-0.244,0.244,0.00000,1.01708,0.04052,33.26
$IMU,665.834,-0.488,0.061,0.244,-0.00683,1.01367,0.04296,33.26
$IMU,665.837,-0.427,0.183,0.122,-0.00878,1.01562,0.04248,33.26
$MAG,665.839,-0.393,-0.487,-0.709,32.1
$IMU,665.839,-0.244,0.244,0.000,-0.00732,1.02099,0.04248,33.26
$IMU,665.842,-0.122,0.244,-0.061,-0.00488,1.01708,0.04150,33.26
$IMU,665.844,0.061,0.305,-0.183,0.00048,1.01757,0.04199,33.26
$IMU,665.846,0.183,0.366,-0.366,-0.00048,1.01806,0.04248,33.25
$MAG,665.849,-0.382,-0.489,-0.711,32.2
$IMU,665.849,0.183,0.549,-0.549,0.00097,1.01855,0.04150,33.25
$IMU,665.851,0.183,0.671,-0.488,0.00195,1.01464,0.04589,33.25
$IMU,665.853,0.244,0.732,-0.610,0.00244,1.01757,0.04052,33.25
$IMU,665.856,0.305,0.915,-0.671,-0.00097,1.01660,0.04101,33.25
$IMU,665.858,0.244,1.159,-0.732,-0.00244,1.01562,0.03662,33.25
$MAG,665.859,-0.391,-0.496,-0.708,32.2
$IMU,665.860,0.183,1.098,-0.732,-0.00097,1.01757,0.03906,33.25
$IMU,665.863,0.122,0.976,-0.732,-0.00341,1.01318,0.03808,33.25
$IMU,665.865,0.061,0.854,-0.671,-0.00244,1.01269,0.03906,33.22
$IMU,665.867,-0.061,0.793,-0.793,0.00146,1.01318,0.04052,33.22
$MAG,665.869,-0.397,-0.483,-0.711,32.2
$IMU,665.870,-0.061,0.610,-0.854,-0.00146,1.01123,0.04101,33.22
$IMU,665.872,0.000,0.610,-0.976,0.00341,1.00732,0.03759,33.22
$IMU,665.874,0.183,0.610,-0.976,0.00000,1.00976,0.04003,33.22
$IMU,665.877,0.366,0.488,-0.915,0.00000,1.01171,0.03759,33.22
$MAG,665.879,-0.390,-0.490,-0.717,32.2
$IMU,665.879,0.305,0.366,-0.854,-0.00341,1.01513,0.04199,33.22
$IMU,665.881,0.244,0.305,-0.793,-0.00488,1.02050,0.04150,33.22
$IMU,665.884,0.122,0.122,-0.793,-0.00537,1.01708,0.04101,33.24
$IMU,665.886,0.122,-0.061,-0.915,-0.00390,1.01513,0.04296,33.24
$IMU,665.888,-0.122,-0.061,-1.220,0.00048,1.01318,0.03955,33.24
$BARO,665.889,86395.50,32.94
$MAG,665.889,-0.388,-0.498,-0.709,32.1
$IMU,665.891,-0.305,-0.061,-1.403,-0.00097,1.00878,0.04003,33.24
$IMU,665.893,-0.366,0.061,-1.464,0.00000,1.00878,0.03417,33.24
$IMU,665.896,-0.488,0.122,-1.403,0.00048,1.00732,0.03417,33.24
$IMU,665.898,-0.610,0.305,-1.464,0.00146,1.00781,0.03173,33.24
$MAG,665.899,-0.388,-0.499,-0.708,32.5
$IMU,665.900,-0.732,0.244,-1.403,-0.00439,1.00781,0.03125,33.24
$IMU,665.903,-0.976,0.305,-1.403,-0.00146,1.00683,0.03076,33.20
$IMU,665.905,-1.281,0.488,-1.464,-0.00634,1.00585,0.03076,33.20
$IMU,665.907,-1.464,0.610,-1.464,-0.00634,1.00732,0.03222,33.20
$MAG,665.909,-0.394,-0.487,-0.715,32.2
$IMU,665.910,-1.647,0.671,-1.342,-0.00390,1.00390,0.03417,33.20
$IMU,665.912,-1.831,0.793,-1.464,-0.00195,1.00927,0.03417,33.20
$IMU,665.914,-2.014,1.037,-1.525,-0.00292,1.00878,0.03759,33.20
$IMU,665.917,-2.075,1.220,-1.647,-0.01025,1.01171,0.03759,33.20
$MAG,665.919,-0.390,-0.492,-0.717,32.2
$IMU,665.919,-1.953,1.159,-1.770,-0.00976,1.01269,0.03759,33.20
$IMU,665.921,-1.770,1.159,-1.953,-0.00683,1.00732,0.03808,33.26
$IMU,665.924,-1.403,1.098,-1.953,-0.01074,1.00976,0.03808,33.26
$IMU,665.926,-1.037,1.037,-1.892,-0.01171,1.01269,0.03808,33.26
$IMU,665.928,-0.854,1.220,-1.953,-0.01220,1.01904,0.04199,33.26
$MAG,665.930,-0.393,-0.477,-0.712,32.2
$IMU,665.931,-0.732,1.281,-1.953,-0.01074,1.01904,0.04052,33.26
$IMU,665.933,-0.671,1.220,-1.892,-0.01123,1.01708,0.04296,33.26
$IMU,665.935,-0.732,1.281,-2.075,-0.01220,1.01611,0.04394,33.26
$IMU,665.938,-0.671,1.281,-2.136,-0.00781,1.01562,0.04345,33.26
$MAG,665.940,-0.394,-0.496,-0.712,32.2
$IMU,665.940,-0.671,1.464,-2.136,-0.00488,1.01660,0.04248,33.23
$IMU,665.942,-0.610,1.464,-2.075,-0.00976,1.01611,0.03955,33.23
$IMU,665.945,-0.549,1.342,-1.953,-0.00976,1.01513,0.03564,33.23
$IMU,665.947,-0.610,1.159,-1.892,-0.00976,1.01416,0.03466,33.23
$IMU,665.949,-0.671,0.915,-1.831,-0.01171,1.01416,0.03564,33.23
$MAG,665.950,-0.391,-0.493,-0.709,32.2
$IMU,665.952,-0.732,0.793,-1.831,-0.01025,1.01464,0.03759,33.23
$IMU,665.954,-0.854,0.549,-1.770,-0.01025,1.01513,0.03906,33.23
$IMU,665.957,-0.976,0.427,-1.708,-0.00830,1.01464,0.03808,33.23
$IMU,665.959,-0.976,0.122,-1.647,-0.00585,1.01416,0.03906,33.22
$MAG,665.960,-0.390,-0.498,-0.711,32.5
$IMU,665.961,-1.098,0.000,-1.586,-0.00781,1.01757,0.04248,33.22
$IMU,665.964,-1.403,0.061,-1.586,-0.00683,1.01953,0.03857,33.22
$IMU,665.966,-1.525,0.000,-1.586,-0.00927,1.02099,0.04296,33.22
$IMU,665.968,-1.708,0.000,-1.647,-0.00878,1.02587,0.04199,33.22
$MAG,665.970,-0.391,-0.489,-0.720,32.2
$IMU,665.971,-1.892,0.061,-1.708,-0.00781,1.01953,0.04052,33.22
$IMU,665.973,-1.708,-0.244,-1.770,-0.00878,1.01660,0.03759,33.22
$IMU,665.975,-1.586,-0.427,-1.831,-0.00878,1.01269,0.03955,33.22
$IMU,665.978,-1.525,-0.488,-1.770,-0.00878,1.01025,0.04101,33.22
$MAG,665.980,-0.381,-0.480,-0.715,32.2
$IMU,665.980,-1.220,-0.793,-1.708,-0.00878,1.01464,0.04150,33.22
$IMU,665.982,-1.159,-0.732,-1.647,-0.00634,1.01513,0.03808,33.22
$IMU,665.985,-1.098,-0.732,-1.647,-0.00634,1.01513,0.03955,33.22
$IMU,665.987,-1.098,-0.549,-1.831,-0.00390,1.01611,0.03808,33.22
$IMU,665.989,-1.220,-0.427,-1.831,-0.00390,1.01806,0.04003,33.22
$BARO,665.990,86400.60,32.96
$MAG,665.990,-0.388,-0.487,-0.709,32.2
$IMU,665.992,-1.281,-0.122,-1.892,-0.00244,1.01855,0.04101,33.22
$IMU,665.994,-1.342,-0.061,-2.014,-0.00439,1.01855,0.04052,33.22
$IMU,665.996,-1.220,-0.061,-2.014,-0.00146,1.02050,0.04003,33.25
$IMU,665.999,-1.098,0.122,-2.136,-0.00292,1.01513,0.04101,33.25
$MAG,666.000,-0.396,-0.493,-0.720,32.2
$IMU,666.001,-1.037,0.305,-2.136,-0.00732,1.01416,0.04345,33.25
$IMU,666.003,-0.976,0.366,-2.075,-0.00439,1.01464,0.04248,33.25
$IMU,666.006,-0.854,0.305,-1.953,-0.00732,1.01562,0.04199,33.25
$IMU,666.008,-0.793,0.061,-1.831,-0.00390,1.02001,0.04296,33.25
$IMU,666.010,-0.793,0.000,-1.708,-0.00488,1.02246,0.03906,33.25
$MAG,666.011,-0.399,-0.489,-0.714,32.1
$IMU,666.013,-0.793,0.061,-1.708,-0.00439,1.01806,0.03906,33.25
$IMU,666.015,-0.854,0.061,-1.708,-0.00146,1.01660,0.04101,33.25
$IMU,666.018,-0.915,0.122,-1.770,-0.00439,1.01806,0.04101,33.25
$IMU,666.020,-0.793,0.244,-1.831,-0.00683,1.01855,0.04101,33.25
$MAG,666.021,-0.384,-0.496,-0.714,32.2
$IMU,666.022,-0.671,0.122,-1.892,-0.00927,1.01904,0.03857,33.25
$IMU,666.025,-0.488,0.183,-1.953,-0.01025,1.01806,0.03808,33.25
$IMU,666.027,-0.183,0.305,-1.892,-0.00927,1.01708,0.03808,33.25
$IMU,666.029,-0.061,0.183,-1.892,-0.01025,1.01513,0.03564,33.25
$MAG,666.031,-0.393,-0.493,-0.708,32.1
$IMU,666.032,0.122,-0.061,-1.831,-0.01123,1.01416,0.04052,33.25
$IMU,666.034,0.000,0.000,-1.770,-0.01025,1.01513,0.03613,33.26
$IMU,666.036,-0.244,-0.122,-1.770,-0.00830,1.01269,0.03466,33.26
$IMU,666.039,-0.549,0.000,-1.708,-0.00830,1.00976,0.03173,33.26
$MAG,666.041,-0.393,-0.498,-0.720,32.2
$IMU,666.041,-0.732,0.183,-1.586,-0.00195,1.01025,0.03515,33.26
$IMU,666.043,-0.854,0.610,-1.403,0.00000,1.01611,0.03417,33.26
$IMU,666.046,-0.793,1.037,-1.342,-0.00341,1.01953,0.03759,33.26
$IMU,666.048,-0.671,1.464,-1.281,-0.00878,1.02050,0.03369,33.26
$IMU,666.050,-0.488,1.586,-1.342,-0.01269,1.02148,0.03759,33.26
$MAG,666.051,-0.381,-0.490,-0.721,32.2
$IMU,666.053,-0.427,1.647,-1.464,-0.01025,1.02050,0.03613,33.24
$IMU,666.055,-0.366,1.464,-1.525,-0.01074,1.01806,0.03808,33.24
$IMU,666.057,-0.427,1.159,-1.525,-0.00732,1.01367,0.04052,33.24
$IMU,666.060,-0.488,1.037,-1.525,-0.00537,1.01416,0.03857,33.24
$MAG,666.061,-0.384,-0.487,-0.717,32.2
$IMU,666.062,-0.549,0.793,-1.342,-0.00488,1.01464,0.03857,33.24
$IMU,666.064,-0.610,0.671,-1.342,-0.00683,1.01367,0.04003,33.24
$IMU,666.067,-0.488,0.427,-1.159,-0.00488,1.01416,0.04101,33.24
$IMU,666.069,-0.488,0.366,-1.098,-0.00585,1.01220,0.04101,33.24
$MAG,666.071,-0.393,-0.492,-0.724,32.2
$IMU,666.071,-0.366,0.366,-1.098,-0.00390,1.01220,0.03955,33.25
$IMU,666.074,-0.122,0.549,-0.976,-0.00537,1.01611,0.03369,33.25
$IMU,666.076,0.366,0.732,-0.793,-0.00390,1.01513,0.03173,33.25
$IMU,666.079,0.976,0.915,-0.549,-0.00390,1.01757,0.03222,33.25
$MAG,666.081,-0.379,-0.493,-0.718,32.2
$IMU,666.081,1.159,1.220,-0.305,-0.00634,1.01611,0.03466,33.25
$IMU,666.083,1.220,1.403,-0.061,-0.01025,1.01171,0.03710,33.25
$IMU,666.086,1.159,1.403,0.000,-0.01611,1.00878,0.03613,33.25
$IMU,666.088,1.098,1.037,0.122,-0.01708,1.00976,0.04101,33.25
$IMU,666.090,0.915,0.427,0.122,-0.01708,1.00830,0.04345,33.26
$MAG,666.091,-0.385,-0.493,-0.720,32.1
$BARO,666.092,86400.30,32.95
$IMU,666.093,0.854,-0.122,0.244,-0.01318,1.01513,0.03955,33.26
$IMU,666.095,0.610,-0.732,0.305,-0.00927,1.01660,0.04101,33.26
$IMU,666.097,0.183,-0.976,0.366,-0.00634,1.02197,0.04345,33.26
$IMU,666.100,-0.061,-1.098,0.488,-0.00390,1.01806,0.04443,33.26
$MAG,666.102,-0.393,-0.495,-0.709,32.2
$IMU,666.102,-0.183,-1.281,0.549,-0.00146,1.01513,0.04785,33.26
$IMU,666.104,-0.183,-1.342,0.732,0.00292,1.01660,0.05029,33.26
$IMU,666.107,-0.183,-1.281,0.854,0.00244,1.01757,0.04931,33.26
$IMU,666.109,-0.122,-1.098,0.854,-0.00048,1.01806,0.05273,33.23
$IMU,666.111,-0.122,-0.915,0.854,-0.00292,1.02050,0.04931,33.23
$MAG,666.112,-0.393,-0.492,-0.718,32.2
$IMU,666.114,-0.061,-0.793,0.793,0.00195,1.01953,0.05126,33.23
$IMU,666.116,-0.122,-0.671,0.671,0.00390,1.02197,0.05126,33.23
$IMU,666.118,-0.122,-0.671,0.488,0.00195,1.02050,0.04980,33.23
$IMU,666.121,-0.122,-0.732,0.488,-0.00341,1.02050,0.04736,33.23
$MAG,666.122,-0.393,-0.486,-0.718,32.2
$IMU,666.123,0.000,-0.915,0.549,-0.00927,1.01660,0.04443,33.23
$IMU,666.125,0.122,-0.793,0.732,-0.00781,1.01708,0.03759,33.23
$IMU,666.128,0.610,-0.732,0.854,-0.00488,1.01269,0.03857,33.27
$IMU,666.130,1.159,-0.671,1.037,-0.01416,1.01318,0.03515,33.27
$MAG,666.132,-0.387,-0.486,-0.714,32.2
$IMU,666.132,1.525,-0.427,1.098,-0.00976,1.01464,0.03417,33.27
$IMU,666.135,1.464,0.000,1.037,-0.00683,1.01171,0.03759,33.27
$IMU,666.137,1.281,0.183,0.976,-0.00585,1.01367,0.03662,33.27
$IMU,666.140,0.976,0.244,0.976,-0.00781,1.00830,0.03710,33.27
$MAG,666.142,-0.387,-0.487,-0.712,32.2
$IMU,666.142,0.610,0.305,0.976,-0.00488,1.01269,0.03808,33.27
$IMU,666.144,0.427,0.183,1.098,0.00146,1.01318,0.04003,33.27
$IMU,666.147,0.244,0.244,1.098,0.00195,1.01220,0.03906,33.26
$IMU,666.149,0.183,0.122,1.159,0.00439,1.01123,0.03564,33.26
$IMU,666.151,0.183,0.061,1.098,0.00244,1.01416,0.03808,33.26
$MAG,666.152,-0.387,-0.495,-0.717,32.2
$IMU,666.154,0.244,0.000,1.037,0.00341,1.01513,0.03906,33.26
$IMU,666.156,0.366,-0.183,0.976,0.00390,1.01660,0.03808,33.26
$IMU,666.158,0.366,-0.366,0.976,0.00048,1.01464,0.04101,33.26
$IMU,666.161,0.305,-0.549,1.037,0.00830,1.01220,0.04150,33.26
$MAG,666.162,-0.388,-0.490,-0.715,32.2
$IMU,666.163,0.122,-0.549,0.976,0.00634,1.01416,0.04248,33.26
$IMU,666.165,0.000,-0.488,0.976,0.00634,1.01708,0.03906,33.26
$IMU,666.168,0.000,-0.671,0.915,0.00732,1.01611,0.03662,33.26
$IMU,666.170,-0.122,-0.610,0.854,0.00390,1.01367,0.03759,33.26
$MAG,666.172,-0.393,-0.492,-0.715,32.2
$IMU,666.172,-0.061,-0.732,0.793,0.00292,1.01464,0.03808,33.26
$IMU,666.175,0.000,-0.854,0.671,0.00292,1.01074,0.03857,33.26
$IMU,666.177,0.061,-0.854,0.793,0.00488,1.00927,0.03710,33.26
$IMU,666.179,0.122,-0.793,0.793,0.00683,1.01074,0.03710,33.26
$IMU,666.182,0.183,-0.610,0.915,0.00878,1.00634,0.03808,33.26
$MAG,666.183,-0.379,-0.492,-0.711,32.2
$IMU,666.184,0.183,-0.305,0.976,0.00781,1.00634,0.03613,33.31
$IMU,666.186,0.305,-0.061,1.098,0.00341,1.00781,0.03466,33.31
$IMU,666.189,0.488,0.000,1.159,0.00341,1.00732,0.03076,33.31
$IMU,666.191,0.549,0.244,1.220,0.00341,1.00634,0.03125,33.31
$BARO,666.193,86396.67,32.95
$MAG,666.193,-0.396,-0.490,-0.712,32.2
$IMU,666.193,0.427,0.427,1.220,0.00390,1.00537,0.03320,33.31
$IMU,666.196,0.305,0.549,1.098,0.00537,1.00585,0.03027,33.31
$IMU,666.198,0.122,0.610,0.976,0.00439,1.00585,0.03173,33.31
$IMU,666.201,0.000,0.671,0.854,0.00683,1.00683,0.02978,33.31
$MAG,666.203,-0.388,-0.495,-0.717,32.3
$IMU,666.203,-0.122,0.793,0.732,0.00683,1.00341,0.03369,33.24
$IMU,666.205,-0.244,0.915,0.671,0.00292,1.00341,0.03662,33.24
$IMU,666.208,-0.244,0.915,0.732,0.00146,1.00390,0.03613,33.24
$IMU,666.210,-0.183,0.793,0.854,0.00439,1.00537,0.03125,33.24
$IMU,666.212,-0.244,0.854,0.732,0.00390,1.00634,0.03076,33.24
$MAG,666.213,-0.393,-0.493,-0.718,32.2
$IMU,666.215,-0.183,0.915,0.610,0.00292,1.01025,0.03125,33.24
$IMU,666.217,0.000,1.037,0.488,0.00292,1.00683,0.03417,33.24
$IMU,666.219,0.244,0.976,0.427,0.00097,1.00781,0.03271,33.24
$IMU,666.222,0.366,1.037,0.366,0.00000,1.00585,0.03076,33.29
$MAG,666.223,-0.391,-0.493,-0.708,32.1
$IMU,666.224,0.549,1.037,0.366,0.00244,1.00390,0.03125,33.29
$IMU,666.226,0.671,1.159,0.366,-0.00048,1.00439,0.02832,33.29
$IMU,666.229,0.671,1.342,0.427,-0.00244,1.00781,0.02880,33.29
$IMU,666.231,0.671,1.281,0.488,-0.00732,1.00634,0.03173,33.29
$MAG,666.233,-0.387,-0.498,-0.715,32.2
$IMU,666.233,0.610,1.159,0.488,-0.00830,1.00878,0.02832,33.29
$IMU,666.236,0.854,0.915,0.549,-0.01025,1.00341,0.02783,33.29
$IMU,666.238,0.976,0.549,0.610,-0.00781,1.00683,0.03125,33.29
$IMU,666.240,0.915,0.183,0.610,-0.00781,1.00537,0.03320,33.23
$MAG,666.243,-0.388,-0.495,-0.715,32.2
$IMU,666.243,0.854,-0.061,0.610,-0.00341,1.00585,0.03320,33.23
$IMU,666.245,0.793,-0.366,0.610,-0.00341,1.00195,0.03222,33.23
$IMU,666.247,0.732,-0.793,0.671,-0.00195,1.00488,0.02880,33.23
$IMU,666.250,0.732,-1.037,0.549,-0.00244,1.00244,0.02685,33.23
$IMU,666.252,0.610,-1.159,0.549,0.00146,1.00146,0.02783,33.23
$MAG,666.253,-0.388,-0.490,-0.717,32.2
$IMU,666.254,0.488,-1.220,0.610,0.00292,1.00195,0.03222,33.23
$IMU,666.257,0.244,-1.281,0.610,0.00390,1.00097,0.02929,33.23
$IMU,666.259,0.122,-1.464,0.671,0.00488,1.00000,0.02636,33.29
$IMU,666.262,-0.122,-1.647,0.671,0.00292,1.00146,0.03027,33.29
$MAG,666.264,-0.387,-0.495,-0.709,32.1
$IMU,666.264,-0.305,-1.770,0.732,0.00048,1.00292,0.02832,33.29
$IMU,666.266,-0.366,-1.831,0.732,0.00195,1.00439,0.02783,33.29
$IMU,666.269,-0.305,-1.892,0.793,0.00097,1.00439,0.02783,33.29
$IMU,666.271,-0.122,-1.953,0.976,0.00048,1.00488,0.03125,33.29
$IMU,666.273,-0.061,-2.075,1.098,-0.00097,1.00341,0.03125,33.29
$MAG,666.274,-0.393,-0.498,-0.714,32.2
$IMU,666.276,0.000,-2.075,1.159,-0.00390,1.00146,0.03027,33.29
$IMU,666.278,-0.183,-1.953,1.220,-0.00732,1.00048,0.03369,33.31
$IMU,666.280,-0.122,-1.953,1.281,-0.00488,1.00292,0.03271,33.31
$IMU,666.283,-0.244,-1.953,1.220,-0.00537,1.00488,0.03027,33.31
$MAG,666.284,-0.382,-0.489,-0.711,32.2
$IMU,666.285,-0.305,-1.953,1.281,-0.00732,1.00244,0.03173,33.31
$IMU,666.287,-0.488,-1.953,1.220,-0.00292,1.00439,0.03173,33.31
$IMU,666.290,-0.732,-1.892,1.220,-0.00244,1.00390,0.03369,33.31
$IMU,666.292,-0.854,-1.892,1.159,-0.00097,1.00634,0.03466,33.31
$MAG,666.294,-0.382,-0.490,-0.712,32.2
$IMU,666.294,-0.915,-1.831,1.037,-0.00439,1.00830,0.03515,33.31
$BARO,666.295,86401.28,32.95
$IMU,666.297,-0.854,-1.892,0.915,-0.00195,1.00927,0.03076,33.30
$IMU,666.299,-0.793,-1.892,0.732,-0.00146,1.00781,0.03125,33.30
$IMU,666.301,-0.915,-1.953,0.610,0.00146,1.00976,0.03076,33.30
$MAG,666.304,-0.388,-0.489,-0.705,32.2
$IMU,666.304,-0.915,-1.892,0.488,0.00537,1.00927,0.03076,33.30
$IMU,666.306,-0.793,-1.831,0.366,0.00634,1.00732,0.03125,33.30
$IMU,666.308,-0.793,-1.770,0.244,0.00683,1.01269,0.03271,33.30
$IMU,666.311,-0.732,-1.708,0.122,0.00634,1.01171,0.03125,33.30
$IMU,666.313,-0.610,-1.892,0.183,0.00341,1.00830,0.03125,33.30
$MAG,666.314,-0.397,-0.489,-0.714,32.2
$IMU,666.315,-0.305,-1.953,0.183,0.00048,1.01025,0.02978,33.26
$IMU,666.318,-0.061,-2.136,0.244,0.00488,1.01171,0.03076,33.26
$IMU,666.320,0.183,-2.136,0.244,0.00683,1.01025,0.02734,33.26
$IMU,666.323,0.244,-2.075,0.244,0.00488,1.00976,0.02978,33.26
$MAG,666.324,-0.388,-0.493,-0.721,32.2
$IMU,666.325,0.061,-1.892,0.244,0.00830,1.00585,0.02734,33.26
$IMU,666.327,-0.183,-1.831,0.183,0.00488,1.00634,0.02734,33.26
$IMU,666.330,-0.366,-1.770,0.061,0.00976,1.00195,0.02832,33.26
$IMU,666.332,-0.732,-1.464,0.183,0.00830,1.00341,0.02587,33.26
$MAG,666.334,-0.391,-0.490,-0.712,32.2
$IMU,666.334,-0.976,-1.220,0.244,0.00439,1.00585,0.02587,33.23
$IMU,666.337,-1.342,-0.854,0.183,0.00488,1.00732,0.02734,33.23
$IMU,666.339,-1.525,-0.488,0.122,0.00488,1.00634,0.02685,33.23
$IMU,666.341,-1.647,-0.244,0.000,0.00537,1.00341,0.02734,33.23
$MAG,666.344,-0.399,-0.490,-0.708,32.2
$IMU,666.344,-1.831,-0.122,-0.122,0.00097,1.00439,0.03125,33.23
$IMU,666.346,-2.075,0.244,-0.244,-0.00195,1.00292,0.03125,33.23
$IMU,666.348,-2.136,0.244,-0.305,-0.00048,1.00292,0.03027,33.23
$IMU,666.351,-2.319,0.427,-0.366,-0.00634,1.00439,0.03320,33.23
$IMU,666.353,-2.441,0.732,-0.427,-0.00292,1.00732,0.03369,33.22
$MAG,666.355,-0.388,-0.490,-0.721,32.2
$IMU,666.355,-2.502,0.915,-0.549,-0.00146,1.00830,0.03662,33.22
$IMU,666.358,-2.563,1.159,-0.732,-0.00292,1.00732,0.04199,33.22
$IMU,666.360,-2.685,1.708,-0.915,-0.00439,1.01025,0.04052,33.22
$IMU,666.362,-2.746,2.197,-1.037,-0.00439,1.00976,0.04785,33.22
$MAG,666.365,-0.384,-0.486,-0.717,32.1
$IMU,666.365,-2.685,2.441,-1.037,-0.00439,1.00488,0.04638,33.22
$IMU,666.367,-2.563,2.685,-1.159,-0.00878,1.00048,0.04199,33.22
$IMU,666.369,-2.258,2.746,-1.281,-0.00976,1.00000,0.03808,33.22
$IMU,666.372,-1.953,2.807,-1.281,-0.01025,1.00488,0.03906,33.27
$IMU,666.374,-1.831,2.990,-1.342,-0.01269,1.01318,0.04003,33.27
$MAG,666.375,-0.391,-0.492,-0.706,32.2
$IMU,666.376,-1.831,2.990,-1.403,-0.01269,1.01220,0.04492,33.27
$IMU,666.379,-1.953,2.990,-1.464,-0.01757,1.01464,0.04248,33.27
$IMU,666.381,-2.197,2.929,-1.586,-0.01660,1.01220,0.04296,33.27
$IMU,666.384,-2.502,2.929,-1.770,-0.01513,1.00927,0.04541,33.27
$MAG,666.385,-0.394,-0.489,-0.706,32.2
$IMU,666.386,-2.685,2.929,-1.831,-0.01123,1.00878,0.04248,33.27
$IMU,666.388,-2.685,2.563,-1.831,-0.01269,1.00439,0.04150,33.27
$IMU,666.391,-2.563,2.136,-1.892,-0.01220,1.00195,0.04394,33.25
$IMU,666.393,-2.441,1.708,-1.647,-0.00976,1.00878,0.04541,33.25
$MAG,666.395,-0.390,-0.489,-0.717,32.3
$IMU,666.395,-2.319,1.403,-1.586,-0.00878,1.01513,0.04296,33.25
$BARO,666.396,86395.72,32.96
$IMU,666.398,-2.380,1.281,-1.586,-0.01025,1.01611,0.04052,33.25
$IMU,666.400,-2.258,1.159,-1.770,-0.01562,1.01660,0.03710,33.25
$IMU,666.402,-2.014,0.854,-1.953,-0.01416,1.01660,0.03808,33.25
$MAG,666.405,-0.385,-0.496,-0.714,32.2
$IMU,666.405,-1.770,0.549,-1.892,-0.01318,1.01464,0.03662,33.25
$IMU,666.407,-1.647,0.427,-1.708,-0.01416,1.01416,0.03759,33.25
$IMU,666.409,-1.586,0.061,-1.281,-0.01757,1.01416,0.04101,33.26
$IMU,666.412,-1.403,-0.610,-1.037,-0.01953,1.01220,0.04492,33.26
$IMU,666.414,-1.342,-1.281,-0.976,-0.02197,1.01757,0.04589,33.26
$MAG,666.415,-0.394,-0.486,-0.711,32.2
$IMU,666.416,-1.342,-1.831,-0.854,-0.02050,1.01611,0.04833,33.26
$IMU,666.419,-1.464,-2.197,-0.854,-0.01416,1.01904,0.04296,33.26
$IMU,666.421,-1.342,-2.563,-0.854,-0.01318,1.01953,0.04052,33.26
$IMU,666.423,-1.098,-2.868,-0.732,-0.00878,1.01904,0.03662,33.26
$MAG,666.425,-0.388,-0.492,-0.718,32.2
$IMU,666.426,-0.976,-3.173,-0.610,-0.00781,1.02050,0.03710,33.26
$IMU,666.428,-0.854,-3.417,-0.488,-0.00488,1.01904,0.03857,33.27
$IMU,666.430,-0.793,-3.295,-0.244,-0.00195,1.01806,0.03857,33.27
$IMU,666.433,-0.732,-3.112,-0.122,-0.00146,1.01855,0.03906,33.27
$IMU,666.435,-0.793,-2.746,-0.183,-0.00244,1.01904,0.04150,33.27
$MAG,666.436,-0.400,-0.487,-0.712,32.2
$IMU,666.437,-0.610,-2.502,-0.183,-0.00292,1.02246,0.03906,33.27
$IMU,666.440,-0.549,-2.075,-0.122,-0.00585,1.02197,0.04199,33.27
$IMU,666.442,-0.488,-1.770,-0.122,0.00048,1.01953,0.03955,33.27
$IMU,666.445,-0.427,-1.403,-0.183,-0.00244,1.02441,0.04003,33.27
$MAG,666.446,-0.385,-0.484,-0.720,32.2
$IMU,666.447,-0.488,-1.098,-0.305,-0.00537,1.01953,0.04248,33.27
$IMU,666.449,-0.610,-1.037,-0.366,-0.00537,1.01855,0.04296,33.27
$IMU,666.452,-0.671,-0.976,-0.305,-0.00390,1.02099,0.04443,33.27
$IMU,666.454,-0.732,-0.610,-0.305,-0.00683,1.02197,0.04443,33.27
$MAG,666.456,-0.394,-0.487,-0.717,32.2
$IMU,666.456,-0.732,-0.366,-0.427,-0.00732,1.02343,0.04589,33.27
$IMU,666.459,-0.793,0.000,-0.549,-0.00634,1.02246,0.04638,33.27
$IMU,666.461,-0.793,0.305,-0.671,-0.00195,1.02148,0.04345,33.27
$IMU,666.463,-0.671,0.793,-0.732,-0.00146,1.01757,0.04199,33.27
$MAG,666.466,-0.382,-0.489,-0.714,32.1
$IMU,666.466,-0.671,1.342,-0.854,-0.00830,1.01611,0.04296,33.24
$IMU,666.468,-0.610,1.831,-1.037,-0.00390,1.01757,0.04589,33.24
$IMU,666.470,-0.549,2.197,-1.098,-0.00097,1.01660,0.04394,33.24
$IMU,666.473,-0.549,2.502,-1.098,-0.00732,1.02001,0.04150,33.24
$IMU,666.475,-0.427,2.502,-1.220,-0.00927,1.01904,0.04003,33.24
$MAG,666.476,-0.388,-0.487,-0.721,32.1
$IMU,666.477,-0.305,2.441,-1.281,-0.00830,1.01660,0.04052,33.24
$IMU,666.480,-0.366,2.502,-1.220,-0.00976,1.01513,0.03662,33.24
$IMU,666.482,-0.488,2.624,-1.159,-0.00488,1.01464,0.03613,33.24
$IMU,666.484,-0.549,2.624,-1.037,-0.00781,1.01416,0.03955,33.28
$MAG,666.486,-0.391,-0.490,-0.708,32.2
$IMU,666.487,-0.488,2.380,-1.098,-0.00683,1.02099,0.04101,33.28
$IMU,666.489,-0.549,2.380,-1.098,-0.00976,1.01855,0.04638,33.28
$IMU,666.491,-0.793,2.563,-1.220,-0.00732,1.01660,0.04589,33.28
$IMU,666.494,-0.793,2.624,-1.281,-0.00878,1.01757,0.04687,33.28
$MAG,666.496,-0.393,-0.489,-0.714,32.2
$IMU,666.496,-0.915,2.685,-1.220,-0.00732,1.01708,0.04589,33.28
$BARO,666.498,86393.48,32.96
$IMU,666.498,-0.793,2.502,-1.220,-0.00732,1.01708,0.04980,33.28
$IMU,666.501,-0.732,2.502,-1.220,-0.00634,1.01904,0.04589,33.28
$IMU,666.503,-0.610,2.502,-1.098,-0.00537,1.01806,0.04541,33.25
$MAG,666.506,-0.390,-0.486,-0.714,32.2
$IMU,666.506,-0.732,2.502,-1.098,-0.00830,1.02001,0.04541,33.25
$IMU,666.508,-0.793,2.258,-1.098,-0.01074,1.01953,0.04199,33.25
$IMU,666.510,-0.854,1.953,-1.098,-0.01171,1.01660,0.04443,33.25
$IMU,666.513,-0.854,1.770,-0.976,-0.01123,1.01904,0.04785,33.25
$IMU,666.515,-1.037,1.831,-0.854,-0.01220,1.02001,0.04638,33.25
$MAG,666.516,-0.388,-0.490,-0.715,32.2
$IMU,666.517,-1.037,1.892,-0.671,-0.01220,1.02197,0.04736,33.25
$IMU,666.520,-0.915,1.708,-0.610,-0.01123,1.02099,0.04785,33.25
$IMU,666.522,-0.854,1.770,-0.366,-0.00732,1.01855,0.04833,33.26
$IMU,666.524,-0.793,1.892,-0.366,-0.00537,1.02343,0.04882,33.26
$MAG,666.527,-0.387,-0.498,-0.723,32.3
$IMU,666.527,-0.732,2.197,-0.366,-0.00976,1.02001,0.04541,33.26
$IMU,666.529,-0.671,2.258,-0.305,-0.01220,1.02197,0.04394,33.26
$IMU,666.531,-0.671,2.380,-0.427,-0.01171,1.01367,0.04394,33.26
$IMU,666.534,-0.671,2.258,-0.305,-0.01220,1.01562,0.03955,33.26
$IMU,666.536,-0.732,1.953,-0.061,-0.00830,1.01269,0.04101,33.26
$MAG,666.537,-0.384,-0.495,-0.721,32.2
$IMU,666.538,-0.854,1.831,0.122,-0.01171,1.01269,0.04052,33.26
$IMU,666.541,-1.037,1.831,0.244,-0.00878,1.01318,0.04101,33.26
$IMU,666.543,-1.098,1.831,0.427,-0.00683,1.01074,0.04150,33.26
$IMU,666.545,-1.098,2.136,0.488,-0.00927,1.01123,0.04101,33.26
$MAG,666.547,-0.385,-0.493,-0.711,32.2
$IMU,666.548,-0.976,2.197,0.305,-0.00781,1.01757,0.04052,33.26
$IMU,666.550,-0.976,2.380,0.122,-0.00683,1.01318,0.04101,33.26
$IMU,666.552,-0.976,2.624,0.000,-0.00878,1.01269,0.04199,33.26
$IMU,666.555,-0.854,2.502,-0.061,-0.00488,1.01416,0.04199,33.26
$MAG,666.557,-0.391,-0.489,-0.715,32.2
$IMU,666.557,-0.793,2.563,0.000,-0.00390,1.01513,0.04052,33.26
$IMU,666.559,-0.793,2.380,0.000,-0.00634,1.01757,0.04492,33.26
$IMU,666.562,-0.732,2.441,0.000,-0.00634,1.01660,0.04541,33.26
$IMU,666.564,-0.671,2.136,-0.122,-0.00830,1.01611,0.04003,33.26
$MAG,666.567,-0.385,-0.490,-0.721,32.2
$IMU,666.567,-0.671,1.892,-0.183,-0.01171,1.01513,0.04296,33.26
$IMU,666.569,-0.549,1.708,-0.122,-0.01464,1.01123,0.04101,33.26
$IMU,666.571,-0.305,1.281,-0.122,-0.01416,1.00732,0.03955,33.26
$IMU,666.574,0.000,0.915,-0.183,-0.00976,1.00732,0.03710,33.26
