$FLYS,1
$VAR,FIRMWARE_VER,v2024.12.30
$VAR,DEVICE_ID,0017003b3253501720373657
$VAR,SESSION_ID,c593958775883f35c18336c4
$COL,BARO,time,pressure,temperature
$UNIT,BARO,s,Pa,deg C
$COL,HUM,time,humidity,temperature
$UNIT,HUM,s,percent,deg C
$COL,MAG,time,x,y,z,temperature
$UNIT,MAG,s,gauss,gauss,gauss,deg C
$COL,IMU,time,wx,wy,wz,ax,ay,az,temperature
$UNIT,IMU,s,deg/s,deg/s,deg/s,g,g,g,deg C
$COL,TIME,time,tow,week
$UNIT,TIME,s,s,
$COL,VBAT,time,voltage
$UNIT,VBAT,s,volt
$DATA
$IMU,28902.553,6.652,-24.047,-33.508,0.73388,-0.42382,0.09960,25.93
$IMU,28902.556,-10.192,-8.178,-11.718,0.87304,-0.49707,0.11328,25.93
$IMU,28902.558,-0.610,-0.366,-0.427,0.83496,-0.48339,0.05419,25.93
$IMU,28902.561,1.342,-2.868,0.366,0.82714,-0.45898,0.04394,25.93
$IMU,28902.563,5.798,-4.760,-13.916,0.84521,-0.44628,0.03613,25.93
$IMU,28902.565,4.821,0.854,-4.150,0.87744,-0.40527,0.07275,25.93
$IMU,28902.568,2.075,9.948,5.432,0.87207,-0.41552,0.01904,25.93
$IMU,28902.570,-3.356,17.150,15.380,0.88330,-0.45458,0.04296,26.48
$IMU,28902.572,3.723,4.089,-6.896,0.87060,-0.45703,0.08593,26.48
$IMU,28902.575,10.925,-7.324,-26.550,0.82519,-0.46191,0.09033,26.48
$IMU,28902.577,10.864,-7.568,-28.015,0.77929,-0.47509,0.04785,26.48
$IMU,28902.579,11.413,-8.605,-29.724,0.79882,-0.44580,0.05468,26.48
$IMU,28902.582,9.826,-8.483,-30.700,0.86035,-0.40625,0.11767,26.48
$IMU,28902.584,7.324,-8.056,-32.165,0.82373,-0.41113,0.08203,26.48
$IMU,28902.586,4.882,-10.131,-32.775,0.84716,-0.40771,0.06005,26.48
$IMU,28902.589,2.197,-11.474,-32.714,0.83349,-0.42724,0.09228,26.42
$IMU,28902.591,-0.732,-11.230,-31.494,0.83984,-0.41943,0.08300,26.42
$IMU,28902.593,-8.056,-8.728,-22.338,0.80273,-0.39257,0.07275,26.42
$IMU,28902.596,-9.948,-9.216,-21.179,0.78857,-0.36718,0.05664,26.42
$IMU,28902.598,-9.399,-11.657,-23.803,0.78027,-0.36230,0.05273,26.42
$IMU,28902.600,-8.728,-13.183,-26.367,0.78857,-0.35839,0.07958,26.42
$IMU,28902.603,-9.704,-12.634,-28.686,0.77880,-0.35205,0.08740,26.42
$IMU,28902.605,-10.192,-13.305,-32.226,0.76513,-0.36425,0.05371,26.42
$IMU,28902.607,-10.803,-14.953,-34.790,0.79248,-0.38183,0.08593,26.46
$IMU,28902.610,-11.291,-15.441,-36.132,0.80371,-0.39794,0.09570,26.46
$IMU,28902.612,-12.756,-16.662,-37.536,0.80322,-0.39843,0.01708,26.46
$IMU,28902.614,-11.413,-20.690,-40.100,0.81396,-0.41845,0.02587,26.46
$IMU,28902.617,-11.108,-23.132,-40.954,0.83349,-0.43701,0.11914,26.46
$IMU,28902.619,-12.695,-20.874,-41.381,0.85156,-0.43310,0.15136,26.46
$IMU,28902.621,-15.563,-16.906,-42.785,0.85009,-0.42871,0.11669,26.46
$IMU,28902.624,-19.042,-13.916,-45.227,0.85937,-0.42968,0.09228,26.46
$IMU,28902.626,-22.888,-13.061,-48.278,0.90283,-0.44091,0.12695,26.53
$IMU,28902.629,-25.146,-11.291,-51.330,0.94287,-0.43945,0.14404,26.53
$IMU,28902.631,-27.282,-8.178,-53.771,0.95458,-0.42968,0.14892,26.53
$IMU,28902.633,-30.334,-6.408,-55.358,0.95361,-0.45263,0.12451,26.53
$IMU,28902.636,-31.555,-4.272,-56.213,0.94384,-0.42968,0.06542,26.53
$IMU,28902.638,-31.921,-3.417,-58.471,0.91113,-0.40478,0.02734,26.53
$IMU,28902.640,-30.395,-3.234,-61.462,0.88720,-0.40771,0.03076,26.53
$IMU,28902.643,-28.137,-3.173,-64.025,0.86328,-0.39160,0.03271,26.53
$IMU,28902.645,-26.062,-3.295,-66.528,0.86328,-0.36474,0.02343,26.50
$IMU,28902.647,-24.230,-3.540,-68.542,0.85546,-0.34619,0.01708,26.50
$IMU,28902.650,-22.521,-4.516,-70.007,0.88867,-0.37109,0.00732,26.50
$IMU,28902.652,-20.629,-5.249,-69.885,0.92431,-0.42968,0.02001,26.50
$IMU,28902.654,-17.517,-5.249,-67.871,0.96191,-0.44970,0.01855,26.50
$IMU,28902.657,-14.709,-5.737,-64.270,1.00097,-0.47753,-0.01806,26.50
$IMU,28902.659,-11.230,-6.652,-59.265,1.03125,-0.51025,-0.03027,26.50
$IMU,28902.661,-5.859,-7.202,-52.673,1.05078,-0.51904,-0.04248,26.50
$IMU,28902.664,-1.098,-8.483,-44.677,1.05078,-0.53076,-0.07080,26.49
$IMU,28902.666,3.417,-11.230,-36.437,1.06347,-0.55322,-0.08398,26.49
$IMU,28902.668,8.789,-14.465,-29.418,1.06982,-0.55615,-0.04785,26.49
$IMU,28902.671,14.160,-16.540,-22.766,1.06347,-0.55126,-0.03320,26.49
$IMU,28902.673,18.554,-17.883,-16.174,1.04296,-0.53125,-0.04736,26.49
$IMU,28902.675,22.521,-19.287,-10.192,1.00781,-0.52392,-0.02832,26.49
$IMU,28902.678,25.512,-21.850,-4.272,0.99462,-0.51660,-0.01416,26.49
$IMU,28902.680,28.808,-23.132,0.427,0.98193,-0.50585,0.01269,26.49
$IMU,28902.682,30.456,-23.986,4.882,0.97021,-0.51123,0.00195,26.53
$IMU,28902.685,35.156,-22.216,7.446,0.93896,-0.51123,-0.08300,26.53
$IMU,28902.687,37.719,-16.174,7.568,0.97558,-0.33007,0.41455,26.53
$IMU,28902.690,9.948,14.038,3.173,0.82470,-0.31396,0.65478,26.53
$IMU,28902.692,9.582,28.198,-6.286,0.83544,-0.56835,-0.08593,26.53
$IMU,28902.694,12.084,13.916,0.488,0.93261,-0.54199,-0.19287,26.53
$IMU,28902.697,5.859,7.324,6.286,0.89599,-0.30175,0.22949,26.53
$IMU,28902.699,4.150,14.404,1.464,0.75341,-0.30908,0.15185,26.53
$IMU,28902.701,10.681,18.615,-8.239,0.58349,-0.19921,-0.03808,26.54
$IMU,28902.704,3.967,11.657,-18.676,0.86181,-0.20458,0.04736,26.54
$IMU,28902.706,2.075,7.995,-16.235,0.86718,-0.33300,0.09521,26.54
$IMU,28902.708,7.995,14.892,-21.606,0.77197,-0.28662,0.12353,26.54
$IMU,28902.711,8.056,16.601,-30.822,0.76318,-0.24853,-0.01611,26.54
$IMU,28902.713,7.812,13.977,-34.729,0.85009,-0.28027,0.08544,26.54
$IMU,28902.715,2.563,20.751,-38.696,0.85205,-0.36279,0.30419,26.54
$IMU,28902.718,0.915,30.395,-49.377,0.72216,-0.33349,0.15039,26.54
$IMU,28902.720,-1.708,28.564,-63.354,0.60253,-0.32421,-0.04052,26.55
$IMU,28902.722,-1.037,19.104,-75.561,0.78710,-0.27148,-0.14062,26.55
$IMU,28902.725,-7.019,12.695,-74.340,0.93212,-0.35351,0.20019,26.55
$IMU,28902.727,-5.981,13.366,-72.814,0.90771,-0.42529,0.01806,26.55
$IMU,28902.729,-4.211,4.760,-71.960,0.98291,-0.44042,0.04736,26.55
$IMU,28902.732,-2.441,4.211,-67.993,1.01904,-0.44238,0.06542,26.55
$IMU,28902.734,-0.244,3.112,-63.537,1.02929,-0.45019,0.02294,26.55
$IMU,28902.736,-1.098,2.807,-57.617,1.04101,-0.45312,0.10546,26.55
$IMU,28902.739,-0.488,3.356,-52.795,1.05859,-0.43457,0.06250,26.52
$IMU,28902.741,-0.793,2.136,-49.072,1.05273,-0.39453,0.08886,26.52
$IMU,28902.743,-1.098,1.586,-46.752,1.02246,-0.38769,0.08593,26.52
$IMU,28902.746,-1.770,0.305,-44.372,1.03710,-0.36083,0.09863,26.52
$IMU,28902.748,-1.770,-0.610,-44.128,1.00781,-0.36083,0.07812,26.52
$IMU,28902.751,-1.342,-1.708,-44.372,0.99804,-0.35058,0.07568,26.52
$IMU,28902.753,-1.831,-2.563,-43.640,0.99169,-0.34228,0.10742,26.52
$IMU,28902.755,-1.953,-3.356,-41.809,0.99072,-0.34667,0.09472,26.52
$IMU,28902.758,-3.234,-4.760,-39.306,0.95507,-0.33203,0.09765,26.49
$IMU,28902.760,-2.807,-6.408,-37.780,0.89501,-0.33691,0.07373,26.49
$IMU,28902.762,-3.601,-7.812,-35.278,0.90576,-0.33105,0.10693,26.49
$IMU,28902.765,-3.662,-9.155,-35.156,0.87158,-0.30566,0.07617,26.49
$IMU,28902.767,-4.150,-9.948,-36.010,0.84814,-0.33691,0.07714,26.49
$IMU,28902.769,-4.089,-10.742,-36.254,0.85888,-0.35546,0.06152,26.49
$IMU,28902.772,-4.211,-11.230,-38.452,0.87011,-0.29101,0.06298,26.49
$IMU,28902.774,-3.967,-11.230,-42.541,0.84326,-0.29589,0.06835,26.49
$IMU,28902.776,-3.479,-11.474,-45.593,0.85009,-0.29394,0.04736,26.58
$IMU,28902.779,-3.601,-12.207,-46.569,0.88623,-0.32421,0.07812,26.58
$IMU,28902.781,-4.150,-12.268,-47.119,0.91748,-0.29589,0.05566,26.58
$IMU,28902.783,-4.089,-12.878,-48.828,0.88769,-0.30615,0.06250,26.58
$IMU,28902.786,-3.906,-13.183,-49.682,0.94042,-0.33544,0.05761,26.58
$IMU,28902.788,-5.187,-13.549,-47.851,0.95361,-0.31542,0.08007,26.58
$IMU,28902.790,-4.150,-13.000,-46.691,0.93847,-0.29736,0.03222,26.58
$BARO,28902.793,86042.11,27.08
$IMU,28902.793,-4.943,-13.549,-45.532,0.99365,-0.28955,0.06884,26.58
$IMU,28902.795,-4.699,-13.427,-45.471,0.96386,-0.28564,0.06884,26.58
$IMU,28902.797,-4.333,-13.183,-45.288,0.93261,-0.26513,0.04785,26.58
$MAG,28902.799,-0.648,0.051,-0.223,-55.0
$IMU,28902.800,-5.004,-13.305,-44.921,0.92236,-0.28759,0.08203,26.58
$IMU,28902.802,-5.187,-13.671,-45.227,0.93798,-0.26464,0.05371,26.58
$IMU,28902.804,-5.920,-14.343,-45.349,0.94531,-0.30761,0.04980,26.58
$IMU,28902.807,-5.249,-14.465,-46.142,1.00146,-0.31054,0.05908,26.58
$MAG,28902.809,-0.789,0.063,-0.277,25.3
$IMU,28902.809,-5.920,-14.282,-46.936,1.03466,-0.29589,0.04443,26.58
$IMU,28902.812,-4.943,-13.305,-48.950,1.01367,-0.28417,0.03369,26.58
$IMU,28902.814,-4.516,-11.962,-49.682,1.00732,-0.30712,0.04736,26.54
$IMU,28902.816,-4.760,-11.169,-48.645,1.02197,-0.30175,0.04345,26.54
$MAG,28902.819,-0.790,0.066,-0.271,25.2
$IMU,28902.819,-4.333,-10.009,-49.682,1.03613,-0.27001,0.03417,26.54
$IMU,28902.821,-3.967,-9.643,-52.246,1.01074,-0.26953,0.05419,26.54
$IMU,28902.823,-3.479,-8.300,-53.039,0.99365,-0.32910,0.05761,26.54
$IMU,28902.826,-3.845,-8.544,-51.269,0.99560,-0.32861,0.06103,26.54
$IMU,28902.828,-4.028,-9.582,-49.926,1.00097,-0.29541,0.06005,26.54
$MAG,28902.829,-0.795,0.052,-0.280,25.2
$IMU,28902.830,-4.455,-10.009,-50.109,0.97802,-0.28222,0.05029,26.54
$IMU,28902.833,-3.662,-10.437,-50.903,0.95019,-0.28369,0.03906,26.53
$IMU,28902.835,-4.089,-10.742,-52.612,0.91503,-0.27832,0.06689,26.53
$IMU,28902.837,-4.638,-11.535,-55.114,0.84375,-0.33935,0.06884,26.53
$HUM,28902.838,46.7,27.5
$MAG,28902.839,-0.789,0.040,-0.276,25.5
$IMU,28902.840,-5.859,-13.732,-57.495,0.82666,-0.30175,0.05664,26.53
$IMU,28902.842,-5.615,-15.563,-61.279,0.82910,-0.27587,0.04492,26.53
$IMU,28902.844,-5.249,-15.869,-64.697,0.82226,-0.22851,0.01416,26.53
$IMU,28902.847,-5.187,-15.563,-68.542,0.84423,-0.23535,0.03076,26.53
$MAG,28902.849,-0.784,0.043,-0.270,25.2
$IMU,28902.849,-5.371,-14.099,-71.655,0.90087,-0.21386,0.01708,26.53
$IMU,28902.851,-4.333,-11.901,-74.157,0.92187,-0.19775,0.00439,26.57
$IMU,28902.854,-4.333,-10.498,-75.378,0.96191,-0.22705,0.05566,26.57
$IMU,28902.856,-4.211,-9.643,-74.768,0.92529,-0.23437,0.01318,26.57
$IMU,28902.858,-3.479,-9.704,-73.730,0.94140,-0.21337,0.03466,26.57
$MAG,28902.860,-0.795,0.037,-0.268,25.3
$IMU,28902.861,-3.417,-8.850,-73.547,0.91406,-0.21240,0.03222,26.57
$IMU,28902.863,-2.868,-8.422,-74.707,0.88232,-0.21630,0.03710,26.57
$IMU,28902.865,-3.845,-9.338,-75.012,0.87207,-0.24951,0.05712,26.57
$IMU,28902.868,-3.967,-11.108,-75.500,0.87304,-0.23437,0.02783,26.57
$MAG,28902.870,-0.792,0.033,-0.271,25.3
$IMU,28902.870,-4.699,-11.840,-76.354,0.88916,-0.23486,0.03369,26.55
$IMU,28902.872,-3.662,-12.084,-77.087,0.88574,-0.21777,0.01367,26.55
$IMU,28902.875,-3.234,-12.207,-79.284,0.88964,-0.19921,0.04638,26.55
$IMU,28902.877,-3.173,-11.352,-80.810,0.91650,-0.20947,0.03271,26.55
$MAG,28902.880,-0.796,0.030,-0.268,25.5
$IMU,28902.880,-3.723,-12.573,-80.505,0.94482,-0.19873,0.05664,26.55
$IMU,28902.882,-3.967,-13.671,-80.444,0.91064,-0.17431,0.04687,26.55
$IMU,28902.884,-4.638,-15.686,-79.162,0.90380,-0.20019,0.04833,26.55
$IMU,28902.887,-4.760,-16.540,-76.599,0.94873,-0.17138,0.02294,26.55
$IMU,28902.889,-3.356,-17.822,-76.599,0.95800,-0.16259,0.00976,26.59
$MAG,28902.890,-0.802,0.022,-0.261,25.6
$IMU,28902.891,-3.967,-16.601,-75.012,0.93408,-0.19921,0.03955,26.59
$BARO,28902.894,86041.09,27.08
$IMU,28902.894,-4.821,-16.723,-72.692,0.94531,-0.17724,0.02880,26.59
$IMU,28902.896,-3.784,-16.662,-73.059,0.94921,-0.18408,0.01660,26.59
$IMU,28902.898,-0.976,-20.629,-83.618,0.78466,-0.30371,0.14843,26.59
$MAG,28902.900,-0.801,0.003,-0.261,25.3
$IMU,28902.901,-7.995,-23.498,-100.158,0.78271,-0.20996,-0.05517,26.59
$IMU,28902.903,-2.746,-20.751,-104.614,0.86865,-0.12353,-0.01757,26.59
$IMU,28902.905,-3.967,-19.165,-104.492,0.92138,-0.10253,0.03466,26.59
$IMU,28902.908,-4.638,-19.531,-105.163,0.97119,-0.08056,0.00927,26.58
$MAG,28902.910,-0.798,0.000,-0.261,25.6
$IMU,28902.910,-3.662,-20.874,-106.018,1.01708,-0.03515,0.03710,26.58
$IMU,28902.912,-3.295,-19.470,-104.248,1.06591,-0.07031,0.00390,26.58
$IMU,28902.915,-2.685,-17.578,-97.961,1.11865,-0.09472,-0.00830,26.58
$IMU,28902.917,-2.807,-15.747,-89.294,1.13916,-0.08105,0.04882,26.58
$IMU,28902.919,-1.708,-11.901,-88.073,2.28369,-0.34912,0.02539,26.58
$MAG,28902.920,-0.808,-0.006,-0.256,25.5
$IMU,28902.922,-0.427,-2.746,-102.783,2.07763,-0.67285,-0.10693,26.58
$IMU,28902.924,-0.061,3.723,-71.594,1.27587,-0.15820,0.07324,26.58
$IMU,28902.926,0.000,0.061,-37.963,1.41308,0.08935,0.08447,26.58
$IMU,28902.929,-0.305,-1.098,-23.559,1.27783,0.02246,0.03906,26.58
$MAG,28902.930,-0.808,-0.006,-0.255,25.5
$IMU,28902.931,-0.183,-0.976,-13.732,1.08837,0.00292,0.01171,26.58
$IMU,28902.933,-0.061,-2.929,-7.507,1.06591,-0.07324,0.05615,26.58
$IMU,28902.936,-0.366,-4.394,-4.150,1.05957,-0.10302,0.04687,26.58
$IMU,28902.938,-0.671,-5.371,-2.258,1.00195,-0.10498,0.01367,26.58
$MAG,28902.940,-0.802,-0.013,-0.259,25.6
$IMU,28902.941,-0.671,-5.920,-1.037,0.99951,-0.12988,0.04443,26.58
$IMU,28902.943,-0.488,-5.187,-0.915,0.98242,-0.12988,0.02001,26.58
$IMU,28902.945,-0.732,-5.432,-1.159,0.97753,-0.12109,0.02392,26.53
$IMU,28902.948,-1.159,-5.920,-1.281,0.98632,-0.12500,0.02978,26.53
$MAG,28902.950,-0.807,-0.016,-0.262,25.6
$IMU,28902.950,-1.220,-6.042,-1.403,0.98339,-0.13232,0.01318,26.53
$IMU,28902.952,-1.098,-5.737,-1.708,0.98486,-0.14257,0.00830,26.53
$IMU,28902.955,-1.159,-4.760,-2.380,0.97509,-0.14697,0.01660,26.53
$IMU,28902.957,-1.098,-3.723,-3.295,0.95458,-0.14746,0.01953,26.53
$IMU,28902.959,-0.854,-3.112,-4.638,0.93945,-0.14843,0.01416,26.53
$MAG,28902.960,-0.808,-0.010,-0.253,25.6
$IMU,28902.962,-0.915,-2.380,-6.469,0.94677,-0.13769,0.01123,26.53
$IMU,28902.964,-0.854,-1.708,-7.568,0.95556,-0.13232,0.02001,26.58
$IMU,28902.966,-0.854,-1.098,-8.483,0.95605,-0.14062,0.02099,26.58
$IMU,28902.969,-0.915,-0.549,-9.704,0.96533,-0.13818,0.01611,26.58
$MAG,28902.970,-0.802,-0.010,-0.250,25.6
$IMU,28902.971,-0.915,0.061,-10.681,0.98437,-0.13330,0.01562,26.58
$IMU,28902.973,-0.732,0.488,-10.986,0.99023,-0.12646,0.02246,26.58
$IMU,28902.976,-0.488,0.671,-11.291,0.99121,-0.12841,0.01367,26.58
$IMU,28902.978,-0.305,0.732,-11.291,1.00976,-0.11865,0.01416,26.58
$MAG,28902.980,-0.810,-0.013,-0.255,25.5
$IMU,28902.980,-0.183,1.037,-10.742,1.00244,-0.12011,0.01318,26.58
$IMU,28902.983,-0.061,1.403,-10.375,0.99414,-0.12841,0.02099,26.55
$IMU,28902.985,-0.244,1.220,-10.437,0.98876,-0.13330,0.02343,26.55
$IMU,28902.987,0.000,0.671,-10.498,0.99951,-0.12646,0.02783,26.55
$IMU,28902.990,-0.244,0.610,-10.559,0.97753,-0.13378,0.01904,26.55
$MAG,28902.991,-0.799,-0.013,-0.259,25.5
$IMU,28902.992,-0.061,0.244,-11.108,0.95800,-0.14257,0.02587,26.55
$IMU,28902.994,-0.183,0.244,-12.390,0.95458,-0.15722,0.01171,26.55
$BARO,28902.996,86044.92,27.08
$IMU,28902.997,0.000,0.610,-13.977,0.97216,-0.14599,0.01660,26.55
$IMU,28902.999,-0.183,0.976,-14.953,0.99462,-0.13427,0.01708,26.55
$MAG,28903.001,-0.810,-0.013,-0.264,25.6
$IMU,28903.002,-0.122,1.098,-14.953,1.00390,-0.11669,0.02490,26.58
$IMU,28903.004,-0.183,1.098,-14.648,0.96191,-0.13916,0.02246,26.58
$IMU,28903.006,-0.122,0.671,-16.174,0.92333,-0.16308,0.02197,26.58
$IMU,28903.009,-0.061,1.220,-18.859,0.94042,-0.15576,-0.00048,26.58
$MAG,28903.011,-0.811,-0.019,-0.262,25.5
$IMU,28903.011,0.183,1.586,-21.057,0.92626,-0.15527,0.02441,26.58
$IMU,28903.013,0.427,1.647,-23.864,0.92187,-0.16845,0.00927,26.58
$IMU,28903.016,0.305,1.892,-26.550,0.97265,-0.14160,0.03271,26.58
$IMU,28903.018,-0.183,2.258,-28.015,0.95703,-0.12841,0.01220,26.58
$IMU,28903.020,0.427,2.258,-29.113,0.98437,-0.11621,0.02490,26.56
$MAG,28903.021,-0.802,-0.018,-0.255,25.6
$IMU,28903.023,0.305,2.136,-29.602,0.95751,-0.13037,0.03417,26.56
$IMU,28903.025,0.061,1.037,-31.311,0.93994,-0.16259,0.06884,26.56
$IMU,28903.027,-0.793,-0.793,-34.912,0.87500,-0.17529,0.05810,26.56
$IMU,28903.030,0.183,-3.784,-38.452,0.95312,-0.12353,0.01708,26.56
$MAG,28903.031,-0.804,-0.022,-0.258,25.6
$IMU,28903.032,0.549,-3.723,-38.940,1.02685,-0.09570,-0.00341,26.56
$IMU,28903.034,0.488,-2.197,-37.963,1.03808,-0.08935,0.00537,26.56
$IMU,28903.037,0.122,0.000,-36.987,1.02539,-0.08154,-0.00878,26.56
$IMU,28903.039,0.183,1.342,-35.522,1.01269,-0.08789,0.00830,26.57
$MAG,28903.041,-0.810,-0.027,-0.256,25.5
$IMU,28903.041,1.464,1.037,-37.658,0.94335,-0.27783,0.06347,26.57
$IMU,28903.044,-0.061,0.488,-44.860,0.73437,-0.12744,0.02050,26.57
$IMU,28903.046,0.488,-0.427,-48.095,0.95019,-0.14160,-0.00244,26.57
$IMU,28903.048,0.183,0.061,-51.086,0.98779,-0.14013,0.03466,26.57
$MAG,28903.051,-0.810,-0.039,-0.252,25.5
$IMU,28903.051,0.061,-1.464,-53.344,0.91699,-0.09375,0.05224,26.57
$IMU,28903.053,-0.061,-4.028,-55.236,0.96875,-0.06835,0.01269,26.57
$IMU,28903.055,-0.366,-4.882,-55.725,1.01708,-0.07226,0.02490,26.57
$IMU,28903.058,-0.366,-3.356,-54.138,1.05126,-0.08935,-0.00390,26.61
$IMU,28903.060,0.427,-1.098,-51.452,1.07080,-0.05810,0.02050,26.61
$MAG,28903.061,-0.808,-0.036,-0.259,25.6
$IMU,28903.063,-0.610,0.854,-48.706,1.04785,-0.02734,0.00000,26.61
$IMU,28903.065,-0.061,1.525,-45.104,1.08886,-0.01171,0.01611,26.61
$IMU,28903.067,-0.366,2.014,-40.893,1.07568,0.00000,0.02685,26.61
$IMU,28903.070,-0.183,1.281,-36.682,1.04882,-0.02490,0.02880,26.61
$MAG,28903.071,-0.814,-0.043,-0.262,25.6
$IMU,28903.072,-0.488,0.671,-33.691,1.06982,-0.02734,0.04052,26.61
$IMU,28903.074,-0.488,0.244,-31.005,1.04980,-0.02587,0.01318,26.61
$IMU,28903.077,-0.061,-0.122,-28.625,1.03466,-0.04443,0.02148,26.55
$IMU,28903.079,0.061,-0.183,-27.404,1.01074,-0.05712,0.03515,26.55
$MAG,28903.081,-0.822,-0.036,-0.250,25.6
$IMU,28903.081,-0.305,-0.854,-26.733,0.98144,-0.05566,0.03125,26.55
$IMU,28903.084,-0.183,-1.037,-27.160,0.96826,-0.08056,0.00781,26.55
$IMU,28903.086,0.366,-1.220,-28.381,1.00048,-0.06591,0.02587,26.55
$IMU,28903.088,-0.122,-1.647,-28.869,0.97363,-0.03369,0.02587,26.55
$MAG,28903.091,-0.811,-0.048,-0.258,25.6
$IMU,28903.091,-0.610,-3.295,-29.357,0.95703,-0.05322,0.02490,26.55
$IMU,28903.093,-0.671,-4.150,-30.029,0.98046,-0.07861,0.04150,26.55
$IMU,28903.095,-0.366,-3.906,-31.250,0.96582,-0.07080,0.00244,26.62
$BARO,28903.097,86041.50,27.08
$IMU,28903.098,-0.122,-4.089,-32.958,0.96679,-0.06933,0.03027,26.62
$IMU,28903.100,-0.549,-3.784,-34.118,0.95751,-0.06542,0.02539,26.62
$MAG,28903.101,-0.813,-0.049,-0.261,25.5
$IMU,28903.102,-0.305,-3.723,-35.400,0.95605,-0.05175,0.00634,26.62
$IMU,28903.105,-0.183,-4.211,-36.560,0.98095,-0.04345,0.03271,26.62
$IMU,28903.107,-0.366,-4.760,-37.170,1.00634,-0.03515,0.02148,26.62
$IMU,28903.109,-0.427,-4.394,-37.109,0.99462,-0.03125,0.00488,26.62
$MAG,28903.111,-0.811,-0.055,-0.256,25.6
$IMU,28903.112,0.061,-3.845,-36.437,1.02343,-0.01855,0.01953,26.62
$IMU,28903.114,-0.244,-3.356,-35.095,1.03173,-0.01806,0.02587,26.57
$IMU,28903.116,-0.244,-3.479,-34.057,1.01464,-0.00634,0.02148,26.57
$IMU,28903.119,-0.488,-4.028,-33.691,0.99609,-0.03173,0.02294,26.57
$IMU,28903.121,0.000,-5.187,-34.301,0.98681,-0.03271,0.02343,26.57
$MAG,28903.122,-0.816,-0.055,-0.258,25.6
$IMU,28903.124,0.000,-6.225,-34.667,0.98291,-0.03222,0.01708,26.57
$IMU,28903.126,0.000,-6.591,-35.339,0.98632,-0.02197,0.00732,26.57
$IMU,28903.128,0.244,-6.958,-36.193,0.96826,-0.04150,0.01708,26.57
$IMU,28903.131,0.000,-7.141,-37.902,0.95947,-0.05126,0.02392,26.57
$MAG,28903.132,-0.808,-0.064,-0.255,25.6
$IMU,28903.133,-0.183,-8.239,-40.161,0.92773,-0.06103,0.01904,26.59
$IMU,28903.135,-0.732,-9.704,-44.738,0.85009,-0.08935,-0.00244,26.59
$IMU,28903.138,-0.366,-10.864,-51.513,0.86132,-0.09082,-0.00439,26.59
$IMU,28903.140,0.366,-12.207,-59.082,0.87500,-0.08447,0.01660,26.59
$MAG,28903.142,-0.814,-0.064,-0.249,25.6
$IMU,28903.142,-0.427,-13.793,-64.636,0.88085,-0.07031,0.01171,26.59
$IMU,28903.145,-0.244,-12.268,-68.664,0.93701,-0.08007,-0.02978,26.59
$IMU,28903.147,-0.122,-9.948,-72.448,0.92724,-0.09863,-0.01074,26.59
$IMU,28903.149,-0.061,-6.713,-76.110,0.92675,-0.10009,-0.00927,26.59
$MAG,28903.152,-0.817,-0.060,-0.246,25.6
$IMU,28903.152,0.244,-4.211,-80.627,0.92919,-0.10107,-0.00390,26.59
$IMU,28903.154,-0.061,-2.014,-83.557,0.94433,-0.06933,-0.02001,26.59
$IMU,28903.156,0.854,-1.464,-86.425,0.95117,-0.04833,0.02148,26.59
$IMU,28903.159,1.098,-1.708,-89.416,0.94482,-0.09179,0.02001,26.59
$IMU,28903.161,1.342,-2.441,-91.491,1.04882,-0.03808,0.02001,26.59
$MAG,28903.162,-0.816,-0.069,-0.250,25.6
$IMU,28903.163,0.000,0.000,-85.388,1.98925,0.08593,0.00683,26.59
$IMU,28903.166,-2.258,5.187,-36.254,1.90234,1.03125,-0.08056,26.59
$IMU,28903.168,-0.610,5.310,-5.859,0.82519,0.38916,0.13281,26.59
$IMU,28903.170,-0.976,-2.136,0.427,1.02490,-0.03759,0.12158,26.58
$MAG,28903.172,-0.817,-0.076,-0.247,25.6
$IMU,28903.173,0.488,-2.441,-0.366,1.00244,0.01171,-0.11181,26.58
$IMU,28903.175,-0.122,-0.305,-0.427,0.99707,-0.00097,0.00976,26.58
$IMU,28903.177,0.244,-0.427,-0.549,0.98974,0.01171,0.05908,26.58
$IMU,28903.180,0.061,-3.173,-1.647,1.03759,0.00146,0.00830,26.58
$MAG,28903.182,-0.814,-0.073,-0.258,25.6
$IMU,28903.182,0.366,-3.112,-2.929,0.99707,0.00585,-0.00097,26.58
$IMU,28903.184,-0.122,-2.136,-1.953,0.98730,0.00927,0.00732,26.58
$IMU,28903.187,-0.305,-1.831,-0.976,0.99121,0.01904,-0.00146,26.58
$IMU,28903.189,-0.244,-1.708,-0.915,0.99316,0.01757,0.01416,26.60
$MAG,28903.192,-0.813,-0.087,-0.256,25.5
$IMU,28903.192,0.061,-1.464,-0.488,0.99951,0.01660,0.00683,26.60
$IMU,28903.194,-0.122,-0.915,-0.305,1.00537,0.01806,0.01123,26.60
$IMU,28903.196,-0.122,-1.037,-0.305,0.99902,0.02050,0.01025,26.60
$BARO,28903.199,86052.08,27.08
$IMU,28903.199,-0.122,-1.037,-0.244,0.99169,0.02197,0.00976,26.60
$IMU,28903.201,0.000,-1.098,-0.244,0.98681,0.02343,0.00830,26.60
$MAG,28903.202,-0.813,-0.076,-0.247,25.5
$IMU,28903.203,-0.122,-1.342,-0.244,0.99560,0.02539,0.01708,26.60
$IMU,28903.206,-0.183,-1.770,-0.183,1.00439,0.02832,0.01513,26.60
$IMU,28903.208,-0.610,-2.136,0.061,1.00488,0.02343,0.02050,26.62
$IMU,28903.210,-0.549,-2.746,0.244,0.99462,0.02929,0.02587,26.62
$MAG,28903.212,-0.813,-0.082,-0.247,25.6
$IMU,28903.213,-0.183,-3.234,0.183,0.99169,0.03173,0.00732,26.62
$IMU,28903.215,-0.061,-2.624,0.305,0.99951,0.03515,0.00488,26.62
$IMU,28903.217,-0.122,-1.525,0.244,0.99316,0.02832,0.00488,26.62
$IMU,28903.220,-0.183,-1.281,0.244,0.99707,0.02392,0.01074,26.62
$MAG,28903.222,-0.813,-0.079,-0.252,25.5
$IMU,28903.222,-0.183,-1.281,0.305,0.99853,0.02685,0.00585,26.62
$IMU,28903.224,-0.366,-1.037,0.244,0.99755,0.02490,0.00488,26.62
$IMU,28903.227,-0.427,-0.793,0.061,0.99853,0.02148,0.00976,26.62
$IMU,28903.229,-0.488,-0.610,0.122,1.00097,0.02197,0.00830,26.62
$IMU,28903.231,-0.488,-0.732,0.122,0.99755,0.02197,0.00488,26.62
$MAG,28903.232,-0.807,-0.087,-0.247,25.6
$IMU,28903.234,-0.610,-0.244,0.122,0.99804,0.02001,0.00292,26.62
$IMU,28903.236,-0.549,0.000,-0.061,1.00146,0.01757,0.00341,26.62
$IMU,28903.238,-0.610,0.244,-0.061,0.99804,0.02099,0.01123,26.62
$IMU,28903.241,-0.488,-0.122,0.000,0.99609,0.01806,0.01757,26.62
$IMU,28903.243,-0.549,-0.366,0.000,0.99658,0.01562,0.00488,26.62
$MAG,28903.242,-0.813,-0.072,-0.252,25.6
$IMU,28903.245,-0.549,-0.122,-0.061,0.99853,0.02099,0.00634,26.58
$IMU,28903.248,-0.610,0.183,0.000,0.99804,0.02294,0.01318,26.58
$IMU,28903.250,-0.549,-0.183,0.000,0.99804,0.01806,0.01220,26.58
$MAG,28903.253,-0.817,-0.081,-0.249,25.6
$IMU,28903.253,-0.488,-0.305,0.000,0.99658,0.01660,0.01220,26.58
$IMU,28903.255,-0.366,-0.427,0.000,0.99804,0.02099,0.00878,26.58
$IMU,28903.257,-0.427,-0.183,0.061,0.99658,0.02197,0.00976,26.58
$IMU,28903.260,-0.427,-0.305,0.000,0.99609,0.02343,0.00830,26.58
$IMU,28903.262,-0.488,0.000,0.000,0.99560,0.02148,0.00927,26.58
$MAG,28903.263,-0.820,-0.078,-0.250,25.7
$IMU,28903.264,-0.427,-0.122,-0.122,0.99853,0.01855,0.01171,26.60
$IMU,28903.267,-0.244,-0.488,-0.305,0.99902,0.02001,0.01220,26.60
$IMU,28903.269,-0.183,-0.732,-0.549,0.99755,0.01953,0.01269,26.60
$IMU,28903.271,-0.183,-0.610,-0.488,0.99951,0.01562,0.01074,26.60
$MAG,28903.273,-0.814,-0.076,-0.253,25.5
$IMU,28903.274,-0.305,-0.427,-0.244,0.99853,0.02099,0.01025,26.60
$IMU,28903.276,-0.305,-0.183,-0.061,0.99804,0.02148,0.01025,26.60
$IMU,28903.278,-0.366,-0.061,0.061,0.99755,0.01708,0.01367,26.60
$IMU,28903.281,-0.366,0.122,0.122,0.99804,0.01513,0.01074,26.60
$MAG,28903.283,-0.813,-0.081,-0.246,25.6
$IMU,28903.283,-0.305,0.061,0.122,1.00097,0.01367,0.01220,26.62
$IMU,28903.285,-0.366,-0.061,0.122,0.99804,0.01123,0.01318,26.62
$IMU,28903.288,-0.488,-0.061,0.122,1.00244,0.01562,0.01464,26.62
$IMU,28903.290,-0.366,-0.488,0.183,1.00732,0.01611,0.01660,26.62
$IMU,28903.292,-0.244,-1.281,0.427,1.00097,0.01269,0.02099,26.62
$MAG,28903.293,-0.819,-0.078,-0.244,25.6
$IMU,28903.295,-0.061,-1.892,0.549,0.99414,0.00634,0.01171,26.62
$IMU,28903.297,-0.244,-1.403,0.305,0.99218,0.00537,0.00000,26.62
$IMU,28903.299,-0.305,-0.610,0.183,0.99658,0.00732,0.00927,26.62
$BARO,28903.300,86047.67,27.08
$IMU,28903.302,-0.244,-0.427,0.061,1.00146,0.00781,0.01660,26.56
$MAG,28903.303,-0.811,-0.078,-0.256,25.6
$IMU,28903.304,-0.305,-0.244,0.122,1.00146,0.00830,0.01513,26.56
$IMU,28903.306,-0.183,-0.610,0.244,1.00341,0.00878,0.01562,26.56
$IMU,28903.309,-0.122,-0.915,0.549,1.00048,0.01269,0.02050,26.56
$IMU,28903.311,-0.061,-1.525,1.037,1.00390,0.01318,0.01708,26.56
$MAG,28903.313,-0.816,-0.070,-0.250,25.6
$IMU,28903.314,-0.122,-2.136,1.464,1.00097,0.01367,0.01562,26.56
$IMU,28903.316,-0.061,-2.746,1.831,0.99121,0.01318,0.01171,26.56
$IMU,28903.318,0.061,-2.685,1.708,0.99462,0.01123,0.00292,26.56
$IMU,28903.321,-0.122,-1.220,1.586,1.00585,0.01513,-0.03759,26.60
$MAG,28903.323,-0.811,-0.076,-0.252,25.6
$IMU,28903.323,-0.488,3.295,0.549,1.00830,0.01562,-0.03125,26.60
$IMU,28903.325,-0.671,4.089,-0.122,0.97167,0.01513,0.06298,26.60
$IMU,28903.328,-0.244,1.953,-0.122,0.98486,0.01171,0.02587,26.60
$IMU,28903.330,0.061,0.976,-0.061,0.98779,0.01806,0.00146,26.60
$IMU,28903.332,0.000,0.732,-0.061,0.99218,0.01464,0.01464,26.60
$MAG,28903.333,-0.813,-0.084,-0.246,25.6
$IMU,28903.335,-0.061,0.488,-0.061,0.99267,0.01416,0.01025,26.60
$IMU,28903.337,-0.183,0.366,-0.244,0.99707,0.01904,0.00927,26.60
$IMU,28903.339,-0.122,0.366,-0.244,0.99804,0.02148,0.00927,26.62
$IMU,28903.342,-0.305,0.244,-0.183,0.99365,0.02294,0.01074,26.62
$MAG,28903.343,-0.820,-0.076,-0.240,25.6
$IMU,28903.344,-0.366,0.122,-0.183,0.99511,0.02197,0.01318,26.62
$IMU,28903.346,-0.488,0.122,-0.183,0.99902,0.02294,0.01171,26.62
$IMU,28903.349,-0.488,-0.183,-0.122,0.99609,0.02636,0.00830,26.62
$IMU,28903.351,-0.549,-0.305,-0.122,0.99755,0.01953,0.01513,26.62
$MAG,28903.353,-0.811,-0.076,-0.250,25.5
$IMU,28903.353,-0.427,-0.061,-0.122,0.99755,0.02441,0.01123,26.62
$IMU,28903.356,-0.305,-0.122,-0.122,0.99707,0.02441,0.02001,26.62
$IMU,28903.358,-0.244,-0.244,-0.061,0.99951,0.02636,0.01367,26.63
$IMU,28903.360,-0.427,0.122,0.000,1.00244,0.02197,0.01123,26.63
$MAG,28903.363,-0.819,-0.073,-0.256,25.6
$IMU,28903.363,-0.305,0.061,-0.061,0.99658,0.02587,0.01757,26.63
$IMU,28903.365,-0.305,0.122,0.000,0.99755,0.02490,0.01904,26.63
$IMU,28903.367,-0.244,0.183,0.061,1.00000,0.02880,0.01269,26.63
$IMU,28903.370,-0.366,0.305,0.061,1.00000,0.02392,0.01464,26.63
$IMU,28903.372,-0.183,0.061,0.122,0.99755,0.02392,0.01513,26.63
$MAG,28903.373,-0.814,-0.078,-0.256,25.6
$IMU,28903.375,-0.244,0.305,0.122,0.99365,0.02392,0.01708,26.63
$IMU,28903.377,-0.305,0.427,0.122,0.99755,0.02685,0.01660,26.62
$IMU,28903.379,-0.244,0.305,0.122,0.99365,0.02197,0.01513,26.62
$IMU,28903.382,-0.244,0.427,0.183,0.99365,0.02001,0.01611,26.62
$MAG,28903.384,-0.816,-0.081,-0.247,25.6
$IMU,28903.384,-0.183,0.183,0.122,0.99853,0.02148,0.01464,26.62
$IMU,28903.386,-0.244,-0.061,0.122,0.99511,0.01806,0.01611,26.62
$IMU,28903.389,-0.366,0.000,0.122,0.99609,0.01708,0.01464,26.62
$IMU,28903.391,-0.305,-0.061,0.244,0.99658,0.01757,0.01562,26.62
$IMU,28903.393,-0.366,-0.122,0.122,0.99560,0.01953,0.01806,26.62
$MAG,28903.394,-0.808,-0.081,-0.241,25.5
$IMU,28903.396,-0.305,-0.244,0.122,0.99365,0.01562,0.01464,26.64
$IMU,28903.398,-0.366,-0.427,0.122,0.99414,0.01904,0.01513,26.64
$IMU,28903.400,-0.427,-0.244,0.122,0.99755,0.01757,0.01464,26.64
$BARO,28903.402,86048.86,27.08
$IMU,28903.403,-0.366,-0.366,0.122,0.99853,0.01708,0.01660,26.64
$MAG,28903.404,-0.808,-0.082,-0.253,25.6
$IMU,28903.405,-0.427,-0.366,0.122,0.99804,0.01220,0.01611,26.64
$IMU,28903.407,-0.427,-0.366,0.122,0.99804,0.01513,0.01464,26.64
$IMU,28903.410,-0.427,-0.244,0.122,0.99951,0.01904,0.01318,26.64
$IMU,28903.412,-0.427,-0.183,0.183,1.00048,0.01855,0.01220,26.64
$MAG,28903.414,-0.819,-0.078,-0.252,25.6
$IMU,28903.414,-0.427,-0.061,0.244,0.99853,0.01318,0.01513,26.64
$IMU,28903.417,-0.305,-0.122,0.183,0.99804,0.01611,0.01269,26.64
$IMU,28903.419,-0.427,0.000,0.183,0.99853,0.01708,0.01123,26.64
$IMU,28903.421,-0.244,-0.061,0.122,0.99755,0.01416,0.00976,26.64
$MAG,28903.424,-0.814,-0.072,-0.237,25.6
$IMU,28903.424,-0.244,0.061,0.183,0.99609,0.01269,0.01318,26.64
$IMU,28903.426,-0.183,0.244,0.244,0.99511,0.01123,0.01123,26.64
$IMU,28903.428,-0.183,0.244,0.122,0.99804,0.01074,0.01269,26.64
$IMU,28903.431,-0.244,0.183,0.183,0.99511,0.01513,0.01513,26.64
$IMU,28903.433,-0.244,0.305,0.122,0.99658,0.01269,0.01220,26.64
$MAG,28903.434,-0.817,-0.078,-0.249,25.5
$IMU,28903.435,-0.183,0.183,0.122,0.99609,0.01513,0.01367,26.64
$IMU,28903.438,-0.244,0.183,0.122,0.99755,0.01025,0.01269,26.64
$IMU,28903.440,-0.183,-0.122,0.122,1.00341,0.00927,0.01171,26.64
$IMU,28903.443,-0.183,-0.061,0.061,0.99804,0.01171,0.01318,26.64
$IMU,28903.445,-0.305,0.000,0.122,1.00000,0.01220,0.01171,26.64
$MAG,28903.444,-0.820,-0.081,-0.247,25.6
$IMU,28903.447,-0.183,-0.183,0.000,0.99951,0.01123,0.01416,26.64
$IMU,28903.450,-0.305,0.000,0.000,0.99853,0.00732,0.01416,26.64
$IMU,28903.452,-0.366,0.000,0.000,0.99804,0.01074,0.01220,26.64
$MAG,28903.454,-0.805,-0.075,-0.253,25.6
$IMU,28903.454,-0.488,0.183,0.061,1.00048,0.01416,0.01416,26.64
$IMU,28903.457,-0.305,0.000,0.061,1.00146,0.01220,0.01074,26.64
$IMU,28903.459,-0.427,0.183,-0.061,0.99902,0.00976,0.01367,26.64
$IMU,28903.461,-0.366,0.000,0.000,0.99804,0.01367,0.01220,26.64
$MAG,28903.464,-0.805,-0.079,-0.247,25.6
$IMU,28903.464,-0.305,-0.122,0.061,0.99804,0.01074,0.01123,26.64
$IMU,28903.466,-0.366,-0.122,0.061,1.00048,0.01269,0.01611,26.64
$IMU,28903.468,-0.244,-0.244,0.183,1.00146,0.01611,0.01660,26.64
$IMU,28903.471,-0.122,-0.732,0.305,0.99804,0.02050,0.01757,26.60
$IMU,28903.473,-0.061,-1.159,0.549,0.99414,0.01806,0.01904,26.60
$MAG,28903.474,-0.813,-0.070,-0.252,25.6
$IMU,28903.475,-0.061,-1.159,0.549,0.99462,0.01074,0.01269,26.60
$IMU,28903.478,-0.244,-0.793,0.305,0.99511,0.01074,0.00292,26.60
$IMU,28903.480,-0.366,-0.122,0.061,0.99609,0.01708,0.00390,26.60
$IMU,28903.482,-0.366,0.183,-0.183,0.99511,0.01953,0.01318,26.60
$MAG,28903.484,-0.816,-0.073,-0.249,25.7
$IMU,28903.485,-0.427,-0.061,-0.183,0.99560,0.02001,0.01025,26.60
$IMU,28903.487,-0.305,-0.305,-0.183,0.99609,0.01904,0.00732,26.60
$IMU,28903.489,-0.305,0.244,-0.061,0.99511,0.02099,0.00878,26.62
$IMU,28903.492,-0.244,-0.122,-0.061,0.99707,0.02539,0.00976,26.62
$MAG,28903.494,-0.813,-0.076,-0.246,25.7
$IMU,28903.494,-0.366,0.061,-0.061,0.99853,0.01904,0.00634,26.62
$IMU,28903.496,-0.305,0.305,0.000,0.99658,0.02050,0.00634,26.62
$IMU,28903.499,-0.244,0.061,0.000,1.00097,0.01806,0.00732,26.62
$IMU,28903.501,-0.122,-0.061,0.000,0.99658,0.02050,0.00683,26.62
$BARO,28903.503,86050.47,27.09
$IMU,28903.504,-0.183,0.000,0.000,0.99853,0.02246,0.00537,26.62
$MAG,28903.505,-0.807,-0.073,-0.255,25.6
$IMU,28903.506,-0.122,-0.061,-0.061,0.99560,0.02246,0.00390,26.62
$IMU,28903.508,-0.244,-0.061,0.000,0.99365,0.02392,0.00634,26.65
$IMU,28903.511,-0.183,-0.244,0.000,0.99218,0.02392,0.00781,26.65
$IMU,28903.513,-0.244,-0.305,0.000,0.99365,0.02587,0.00439,26.65
$MAG,28903.515,-0.810,-0.076,-0.258,25.6
$IMU,28903.515,-0.183,-0.244,0.061,0.99365,0.02734,0.00683,26.65
$IMU,28903.518,-0.305,-0.061,0.122,0.98730,0.03125,0.00732,26.65
$IMU,28903.520,-0.427,-0.610,0.122,0.99414,0.02246,0.01171,26.65
$IMU,28903.522,-0.183,-0.732,0.122,0.99511,0.02490,0.00195,26.65
$MAG,28903.525,-0.811,-0.082,-0.253,25.6
$IMU,28903.525,-0.183,-0.549,0.122,0.99755,0.02246,0.00634,26.65
$IMU,28903.527,-0.244,-0.427,0.122,0.99755,0.01806,0.01220,26.62
$IMU,28903.529,-0.305,-0.366,0.183,0.99755,0.02343,0.00683,26.62
$IMU,28903.532,-0.427,-0.427,0.122,1.00292,0.02099,0.00830,26.62
$IMU,28903.534,-0.244,-0.427,0.183,1.00000,0.02050,0.00634,26.62
$MAG,28903.535,-0.810,-0.075,-0.250,25.6
$IMU,28903.536,-0.305,-0.305,0.122,1.00683,0.01367,0.00732,26.62
$IMU,28903.539,-0.244,-0.061,0.000,1.00488,0.01464,0.00537,26.62
$IMU,28903.541,-0.244,0.122,0.061,1.00292,0.01171,0.00683,26.62
$IMU,28903.543,-0.366,0.122,0.061,1.00000,0.01611,0.01220,26.62
$IMU,28903.546,-0.244,0.000,0.061,1.00097,0.01025,0.00830,26.61
$MAG,28903.545,-0.814,-0.081,-0.246,25.6
$IMU,28903.548,-0.244,0.000,0.061,1.00244,0.00878,0.00781,26.61
$IMU,28903.550,-0.427,0.122,0.061,1.00097,0.00732,0.01025,26.61
$IMU,28903.553,-0.305,-0.183,0.000,1.00146,0.00830,0.01074,26.61
$VBAT,28903.553,4.137
$MAG,28903.555,-0.814,-0.079,-0.256,25.5
$IMU,28903.555,-0.427,-0.366,-0.061,1.00048,0.00781,0.01074,26.61
$IMU,28903.557,-0.610,-0.488,-0.122,1.00244,0.00488,0.01269,26.61
$IMU,28903.560,-0.732,-0.549,-0.122,1.00244,0.00781,0.01269,26.61
$IMU,28903.562,-0.671,-0.488,-0.122,0.99804,0.00927,0.01318,26.61
$MAG,28903.565,-0.811,-0.078,-0.249,25.7
$IMU,28903.565,-0.610,-0.671,-0.183,0.99853,0.00976,0.01660,26.65
$IMU,28903.567,-0.732,-0.976,-0.244,0.99804,0.00976,0.01611,26.65
$IMU,28903.569,-0.610,-0.854,-0.183,0.99658,0.01025,0.01464,26.65
$IMU,28903.572,-0.671,-0.793,-0.244,0.99707,0.01220,0.01367,26.65
$IMU,28903.574,-0.549,-0.915,-0.183,0.99560,0.01660,0.01611,26.65
$MAG,28903.575,-0.811,-0.078,-0.256,25.6
$IMU,28903.576,-0.427,-1.037,-0.183,0.99414,0.01855,0.01464,26.65
$IMU,28903.579,-0.366,-0.976,-0.183,0.99560,0.01806,0.01513,26.65
$IMU,28903.581,-0.244,-0.915,-0.183,0.99414,0.01953,0.01611,26.65
$IMU,28903.583,-0.183,-0.976,-0.122,0.99365,0.02099,0.01806,26.61
$MAG,28903.585,-0.811,-0.078,-0.247,25.6
$IMU,28903.586,-0.122,-0.976,0.000,0.99121,0.01757,0.01367,26.61
$IMU,28903.588,-0.061,-0.488,-0.061,0.99267,0.02392,0.01513,26.61
$IMU,28903.590,-0.061,-0.488,-0.061,0.99316,0.02587,0.01318,26.61
$IMU,28903.593,0.000,-0.366,0.000,0.99121,0.02246,0.01367,26.61
$MAG,28903.595,-0.825,-0.079,-0.258,25.7
$IMU,28903.595,0.061,-0.244,-0.061,0.99023,0.02392,0.01220,26.61
$IMU,28903.597,0.061,-0.183,0.000,0.99511,0.02783,0.01123,26.61
$IMU,28903.600,0.061,-0.183,0.000,0.99609,0.02343,0.01269,26.61
$IMU,28903.602,0.061,-0.061,0.061,0.99462,0.02343,0.00976,26.60
$IMU,28903.604,0.061,-0.183,0.061,0.99511,0.02539,0.01318,26.60
$BARO,28903.605,86049.67,27.08
$MAG,28903.605,-0.808,-0.079,-0.250,25.6
$IMU,28903.607,0.122,-0.122,0.061,1.00292,0.02197,0.00927,26.60
$IMU,28903.609,-0.061,-0.061,0.183,0.99560,0.02539,0.00927,26.60
$IMU,28903.611,-0.061,-0.183,0.122,1.00000,0.02294,0.00781,26.60
$IMU,28903.614,-0.183,0.000,0.122,0.99658,0.02197,0.00781,26.60
$MAG,28903.615,-0.802,-0.081,-0.247,25.7
$IMU,28903.616,-0.244,0.122,0.122,0.99951,0.02148,0.00537,26.60
$IMU,28903.618,-0.305,-0.244,0.122,1.00097,0.02050,0.00488,26.60
$IMU,28903.621,-0.366,0.183,0.122,1.00537,0.01953,0.00683,26.64
$IMU,28903.623,-0.366,0.000,0.061,1.00292,0.01708,0.00683,26.64
$MAG,28903.625,-0.817,-0.070,-0.241,25.7
$IMU,28903.626,-0.427,-0.061,0.000,1.00097,0.01269,0.00732,26.64
$IMU,28903.628,-0.427,0.122,0.122,1.00195,0.01464,0.00585,26.64
$IMU,28903.630,-0.488,0.122,0.061,1.00097,0.01367,0.00830,26.64
$IMU,28903.633,-0.427,0.000,0.061,1.00048,0.01464,0.00537,26.64
$IMU,28903.635,-0.427,0.061,0.061,0.99804,0.01318,0.00390,26.64
$MAG,28903.636,-0.816,-0.075,-0.253,25.6
$IMU,28903.637,-0.366,0.122,0.061,0.99707,0.01416,0.00683,26.64
$IMU,28903.640,-0.366,0.000,0.000,0.99658,0.01611,0.01025,26.64
$IMU,28903.642,-0.305,-0.122,0.061,0.99462,0.01953,0.00683,26.64
$IMU,28903.644,-0.366,0.244,0.061,0.99414,0.01757,0.00732,26.64
$MAG,28903.646,-0.813,-0.073,-0.249,25.6
$IMU,28903.647,-0.305,-0.122,-0.061,0.99511,0.01855,0.00683,26.64
$IMU,28903.649,-0.366,-0.244,0.000,0.99560,0.01855,0.00732,26.64
$IMU,28903.651,-0.244,-0.122,0.000,0.99316,0.01708,0.01171,26.64
$IMU,28903.654,-0.244,-0.366,0.061,0.99609,0.01806,0.01123,26.64
$MAG,28903.656,-0.814,-0.072,-0.252,25.6
$IMU,28903.656,-0.244,-0.366,0.061,0.99511,0.01855,0.01025,26.64
$IMU,28903.658,-0.183,-0.549,0.122,0.99755,0.01708,0.00781,26.63
$IMU,28903.661,-0.244,-0.732,0.061,0.99560,0.01367,0.00830,26.63
$IMU,28903.663,-0.244,-0.854,0.061,0.99951,0.01562,0.00830,26.63
$IMU,28903.665,-0.244,-0.793,0.122,0.99755,0.01464,0.00976,26.63
$MAG,28903.666,-0.816,-0.079,-0.255,25.6
$IMU,28903.668,-0.183,-1.098,0.061,0.99853,0.01464,0.00927,26.63
$IMU,28903.670,-0.244,-0.976,-0.061,1.00000,0.01318,0.00585,26.63
$IMU,28903.672,-0.244,-0.915,0.000,1.00048,0.01318,0.00683,26.63
$IMU,28903.675,-0.366,-0.610,0.000,1.00146,0.01171,0.00830,26.63
$MAG,28903.676,-0.811,-0.073,-0.243,25.6
$IMU,28903.677,-0.366,-0.610,0.000,1.00195,0.00976,0.01025,26.60
$IMU,28903.679,-0.366,-0.671,-0.061,1.00244,0.00878,0.01171,26.60
$IMU,28903.682,-0.366,-0.854,-0.122,1.00195,0.01123,0.01123,26.60
$IMU,28903.684,-0.549,-0.366,-0.122,1.00097,0.01123,0.01025,26.60
$MAG,28903.686,-0.808,-0.075,-0.255,25.6
$IMU,28903.686,-0.488,-0.549,-0.122,0.99755,0.00585,0.00878,26.60
$IMU,28903.689,-0.671,-0.366,-0.061,0.99804,0.00878,0.01074,26.60
$IMU,28903.691,-0.732,-0.061,-0.183,0.99511,0.00683,0.01123,26.60
$IMU,28903.694,-0.488,-0.366,-0.183,0.99755,0.00976,0.01220,26.60
$MAG,28903.696,-0.810,-0.078,-0.252,25.6
$IMU,28903.696,-0.549,-0.305,-0.061,1.00000,0.00976,0.01269,26.66
$IMU,28903.698,-0.671,-0.183,-0.122,0.99951,0.00683,0.01123,26.66
$IMU,28903.701,-0.610,-0.488,-0.183,0.99804,0.00976,0.01171,26.66
$IMU,28903.703,-0.671,-0.244,-0.183,0.99707,0.01318,0.01220,26.66
$IMU,28903.705,-0.610,-0.305,-0.122,0.99658,0.01220,0.01123,26.66
$BARO,28903.706,86045.65,27.08
$MAG,28903.706,-0.804,-0.082,-0.253,25.7
$IMU,28903.708,-0.549,-0.366,-0.183,0.99658,0.01220,0.01123,26.66
$IMU,28903.710,-0.183,-0.854,-0.122,0.99609,0.01123,0.01611,26.66
$IMU,28903.712,-0.305,-0.549,-0.061,0.99951,0.01220,0.01416,26.66
$IMU,28903.715,-0.305,-0.427,-0.122,0.99755,0.01074,0.01123,26.62
$MAG,28903.716,-0.810,-0.073,-0.250,25.6
$IMU,28903.717,-0.305,-0.366,-0.183,0.99707,0.01171,0.01220,26.62
$IMU,28903.719,-0.183,-0.427,-0.183,0.99414,0.01220,0.00976,26.62
$IMU,28903.722,-0.122,-0.488,-0.061,0.99609,0.01416,0.00976,26.62
$IMU,28903.724,0.061,-0.610,-0.244,0.99560,0.01513,0.01123,26.62
$MAG,28903.726,-0.816,-0.082,-0.256,25.6
$IMU,28903.726,0.000,-0.366,-0.183,0.99609,0.01562,0.01318,26.62
$IMU,28903.729,0.061,-0.427,-0.122,0.99853,0.01562,0.00830,26.62
$IMU,28903.731,-0.061,-0.061,-0.244,0.99658,0.01660,0.00927,26.62
$IMU,28903.733,0.000,-0.183,-0.305,0.99658,0.01562,0.01220,26.64
$MAG,28903.736,-0.816,-0.075,-0.250,25.6
$IMU,28903.736,-0.061,-0.244,-0.305,0.99853,0.01855,0.01318,26.64
$IMU,28903.738,-0.122,-0.244,-0.244,0.99951,0.01806,0.00878,26.64
$IMU,28903.740,-0.244,-0.427,-0.366,0.99951,0.01904,0.01025,26.64
$IMU,28903.743,-0.061,-0.549,-0.244,0.99658,0.02001,0.00830,26.64
$IMU,28903.745,-0.061,-0.305,-0.244,0.99609,0.02148,0.00781,26.64
$MAG,28903.746,-0.820,-0.082,-0.249,25.6
$IMU,28903.747,-0.183,-0.061,-0.244,0.99755,0.02392,0.00732,26.64
$IMU,28903.750,-0.061,-0.183,-0.183,0.99951,0.02783,0.00976,26.64
$IMU,28903.752,-0.122,0.122,-0.122,0.99951,0.02587,0.00781,26.65
$IMU,28903.755,0.000,-0.061,-0.122,0.99658,0.03027,0.00683,26.65
$MAG,28903.756,-0.816,-0.075,-0.244,25.7
$IMU,28903.757,-0.183,0.549,0.000,0.99218,0.03173,0.00878,26.65
$IMU,28903.759,-0.183,0.427,0.000,0.99414,0.03369,0.00732,26.65
$IMU,28903.762,-0.183,0.427,0.000,0.99511,0.02880,0.01025,26.65
$IMU,28903.764,-0.366,0.610,0.061,0.99707,0.02880,0.01367,26.65
$IMU,28903.766,-0.244,0.366,0.000,0.99414,0.03027,0.01464,26.65
$MAG,28903.767,-0.814,-0.078,-0.256,25.6
$IMU,28903.769,-0.183,0.305,0.061,0.99511,0.02978,0.01123,26.65
$IMU,28903.771,-0.061,0.305,0.122,0.99804,0.02978,0.01513,26.63
$IMU,28903.773,-0.122,0.122,0.183,0.99804,0.02832,0.01367,26.63
$IMU,28903.776,-0.122,0.061,0.183,0.99560,0.02929,0.01269,26.63
$MAG,28903.777,-0.817,-0.075,-0.247,25.6
$IMU,28903.778,-0.183,0.000,0.244,0.99853,0.02685,0.01464,26.63
$IMU,28903.780,-0.183,0.122,0.183,0.99902,0.02197,0.01171,26.63
$IMU,28903.783,-0.305,0.366,0.183,0.99560,0.02148,0.01269,26.63
$IMU,28903.785,-0.183,0.183,0.244,0.99462,0.02050,0.01220,26.63
$MAG,28903.787,-0.813,-0.075,-0.249,25.6
$IMU,28903.787,-0.122,0.061,0.244,0.99804,0.02050,0.01269,26.63
$IMU,28903.790,-0.122,0.244,0.244,0.99365,0.01513,0.01367,26.65
$IMU,28903.792,-0.122,0.122,0.366,0.99755,0.01269,0.01367,26.65
$IMU,28903.794,-0.244,0.122,0.244,0.99658,0.00927,0.01562,26.65
$MAG,28903.797,-0.820,-0.076,-0.244,25.6
$IMU,28903.797,-0.244,0.244,0.244,0.99365,0.00927,0.01220,26.65
$IMU,28903.799,-0.244,0.366,0.183,0.99951,0.00927,0.01367,26.65
$IMU,28903.801,-0.183,0.122,0.183,0.99951,0.00976,0.01367,26.65
$IMU,28903.804,-0.427,0.427,0.183,1.00244,0.01025,0.01562,26.65
$IMU,28903.806,-0.305,0.305,0.122,1.00292,0.00878,0.01513,26.65
$BARO,28903.807,86048.67,27.09
$MAG,28903.807,-0.817,-0.073,-0.249,25.6
$IMU,28903.808,-0.427,0.427,0.183,1.00048,0.00341,0.01708,26.64
$IMU,28903.811,-0.366,0.183,0.122,1.00292,0.00683,0.01660,26.64
$IMU,28903.813,-0.366,0.061,0.000,0.99755,0.00390,0.01513,26.64
$IMU,28903.816,-0.305,0.122,0.000,1.00195,0.00878,0.01513,26.64
$MAG,28903.817,-0.814,-0.076,-0.243,25.6
$IMU,28903.818,-0.244,0.061,0.000,1.00292,0.00683,0.01513,26.64
$IMU,28903.820,-0.366,0.244,0.000,1.00146,0.00488,0.01513,26.64
$IMU,28903.823,-0.305,0.305,-0.061,0.99853,0.00439,0.01269,26.64
$IMU,28903.825,-0.244,0.305,-0.061,0.99902,0.00488,0.01123,26.64
$MAG,28903.827,-0.817,-0.079,-0.246,25.6
$IMU,28903.827,-0.244,0.427,-0.061,1.00146,0.00634,0.01171,26.64
$IMU,28903.830,-0.244,0.427,-0.122,0.99951,0.00781,0.00976,26.64
$IMU,28903.832,-0.366,0.488,-0.122,0.99658,0.00830,0.01220,26.64
$IMU,28903.834,-0.305,0.488,-0.183,0.99755,0.00878,0.00976,26.64
$MAG,28903.837,-0.807,-0.079,-0.243,25.6
$IMU,28903.837,-0.305,0.366,-0.122,0.99707,0.00585,0.00927,26.64
$IMU,28903.839,-0.366,0.366,-0.122,0.99707,0.01123,0.01025,26.64
$IMU,28903.841,-0.366,0.366,-0.061,0.99462,0.01269,0.00634,26.64
$IMU,28903.844,-0.305,0.305,-0.183,0.99609,0.01220,0.00488,26.64
$IMU,28903.846,-0.305,0.122,-0.183,0.99755,0.01757,0.00341,26.67
$MAG,28903.847,-0.820,-0.079,-0.249,25.6
$IMU,28903.848,-0.183,0.122,-0.122,0.99804,0.01757,0.00048,26.67
$IMU,28903.851,-0.183,0.183,-0.061,0.99365,0.01855,0.00390,26.67
$IMU,28903.853,-0.244,0.366,-0.061,0.99609,0.01953,0.00244,26.67
$HUM,28903.854,46.3,27.5
$IMU,28903.855,-0.183,0.183,-0.061,0.99169,0.02001,0.00195,26.67
$MAG,28903.857,-0.817,-0.072,-0.250,25.7
$IMU,28903.858,-0.122,0.061,0.000,0.99462,0.01757,0.00000,26.67
$IMU,28903.860,-0.122,-0.061,-0.061,0.99511,0.01904,-0.00097,26.67
$IMU,28903.862,-0.244,-0.061,-0.061,0.99853,0.02148,-0.00048,26.67
$IMU,28903.865,-0.366,0.000,-0.061,0.99755,0.01953,-0.00146,26.69
$MAG,28903.867,-0.816,-0.078,-0.247,25.7
$IMU,28903.867,-0.427,0.122,-0.061,0.99902,0.02001,-0.00439,26.69
$IMU,28903.869,-0.366,0.061,-0.122,0.99658,0.01953,-0.00146,26.69
$IMU,28903.872,-0.366,-0.061,-0.122,0.99462,0.02490,0.00195,26.69
$IMU,28903.874,-0.305,-0.122,-0.122,0.99755,0.02294,0.00000,26.69
$MAG,28903.877,-0.819,-0.076,-0.246,25.7
$IMU,28903.877,-0.366,0.000,-0.122,0.99902,0.02099,-0.00244,26.69
$IMU,28903.879,-0.427,0.000,-0.122,1.00048,0.01904,-0.00244,26.69
$IMU,28903.881,-0.427,-0.061,-0.183,1.00000,0.01757,0.00195,26.69
$IMU,28903.884,-0.427,-0.244,-0.122,1.00097,0.01855,0.00244,26.60
$IMU,28903.886,-0.549,-0.305,-0.122,0.99804,0.01953,-0.00146,26.60
$MAG,28903.888,-0.816,-0.076,-0.246,25.6
$IMU,28903.888,-0.427,-0.427,-0.183,0.99707,0.02099,-0.00146,26.60
$IMU,28903.891,-0.549,-0.244,-0.183,0.99609,0.01953,0.00000,26.60
$IMU,28903.893,-0.488,-0.122,-0.122,0.99902,0.01806,-0.00195,26.60
$IMU,28903.895,-0.488,-0.061,-0.122,0.99951,0.02148,0.00097,26.60
$MAG,28903.898,-0.816,-0.082,-0.246,25.6
$IMU,28903.898,-0.366,0.122,-0.122,0.99755,0.01806,0.00000,26.60
$IMU,28903.900,-0.366,-0.061,-0.122,0.99951,0.01855,0.00390,26.60
$IMU,28903.902,-0.549,-0.061,-0.122,0.99609,0.01708,0.00341,26.67
$IMU,28903.905,-0.488,-0.061,-0.061,0.99707,0.01513,-0.00292,26.67
$IMU,28903.907,-0.488,0.061,-0.061,0.99560,0.02050,0.00146,26.67
$MAG,28903.908,-0.810,-0.079,-0.246,25.6
$BARO,28903.909,86057.91,27.08
$IMU,28903.909,-0.549,0.061,-0.061,0.99707,0.01904,0.00634,26.67
$IMU,28903.912,-0.488,-0.183,-0.061,0.99853,0.01708,0.00781,26.67
$IMU,28903.914,-0.488,-0.244,-0.061,0.99462,0.01708,0.00683,26.67
$IMU,28903.916,-0.488,-0.305,-0.061,0.99658,0.01660,0.00341,26.67
$MAG,28903.918,-0.819,-0.073,-0.246,25.7
$IMU,28903.919,-0.488,-0.366,-0.122,0.99707,0.01562,0.00830,26.67
$IMU,28903.921,-0.488,-0.366,-0.061,0.99414,0.01806,0.00781,26.64
$IMU,28903.923,-0.488,-0.183,-0.061,0.99560,0.01611,0.00878,26.64
$IMU,28903.926,-0.366,-0.366,-0.061,0.99609,0.01660,0.00732,26.64
$MAG,28903.928,-0.816,-0.069,-0.250,25.7
$IMU,28903.928,-0.305,-0.366,-0.061,0.99804,0.01562,0.00781,26.64
$IMU,28903.930,-0.305,-0.305,0.000,0.99658,0.01269,0.00634,26.64
$IMU,28903.933,-0.244,-0.061,-0.061,0.99316,0.01318,0.00830,26.64
$IMU,28903.935,-0.244,0.000,-0.061,0.99609,0.01074,0.00732,26.64
$IMU,28903.937,-0.366,-0.061,-0.061,0.99951,0.01513,0.00976,26.64
$MAG,28903.938,-0.811,-0.079,-0.255,25.7
$IMU,28903.940,-0.183,-0.061,-0.122,1.00048,0.01220,0.00830,26.59
$IMU,28903.942,-0.305,-0.122,-0.122,1.00097,0.01367,0.00830,26.59
$IMU,28903.945,-0.305,-0.244,-0.122,1.00000,0.01367,0.00732,26.59
$IMU,28903.947,-0.488,0.000,-0.122,0.99804,0.01367,0.01318,26.59
$MAG,28903.948,-0.816,-0.079,-0.253,25.6
$IMU,28903.949,-0.488,-0.122,-0.122,1.00097,0.00927,0.01123,26.59
$IMU,28903.952,-0.366,-0.305,-0.061,1.00048,0.01416,0.00878,26.59
$IMU,28903.954,-0.244,-0.305,-0.122,0.99755,0.01660,0.00585,26.59
$IMU,28903.956,-0.305,-0.122,-0.122,0.99658,0.01367,0.01074,26.59
$MAG,28903.958,-0.814,-0.069,-0.247,25.7
$IMU,28903.959,-0.305,0.000,-0.122,0.99560,0.01855,0.00830,26.66
$IMU,28903.961,-0.122,-0.061,0.000,0.99658,0.01953,0.00781,26.66
$IMU,28903.963,-0.244,0.366,-0.061,0.99755,0.02050,0.00732,26.66
$IMU,28903.966,-0.183,0.244,0.000,0.99365,0.01953,0.00781,26.66
$MAG,28903.968,-0.814,-0.073,-0.250,25.7
$IMU,28903.968,-0.061,0.183,-0.061,0.96728,0.03320,0.00390,26.66
$IMU,28903.970,-0.915,-2.929,0.122,0.96630,0.01806,0.03808,26.66
$IMU,28903.973,0.183,-3.784,0.122,1.00097,0.01806,0.01025,26.66
$IMU,28903.975,0.244,-2.685,0.366,1.01123,0.02880,-0.01464,26.66
$IMU,28903.977,-0.488,-0.183,1.159,1.01562,0.02441,0.00000,26.66
$MAG,28903.978,-0.820,-0.072,-0.259,25.6
$IMU,28903.980,-0.671,1.342,1.403,1.01464,0.02636,0.01123,26.66
$IMU,28903.982,-0.549,0.671,0.549,0.99707,0.02636,0.01464,26.66
$IMU,28903.984,-0.305,-0.122,0.122,0.98974,0.02880,0.00781,26.66
$IMU,28903.987,-0.305,-0.366,0.244,0.99609,0.02929,0.00439,26.66
$MAG,28903.988,-0.813,-0.076,-0.258,25.7
$IMU,28903.989,-0.366,-0.427,0.183,1.00146,0.02294,0.00683,26.66
$IMU,28903.991,-0.305,-0.671,0.427,1.00537,0.02539,0.01123,26.66
$IMU,28903.994,-0.366,-0.793,0.427,1.00488,0.02343,0.00683,26.66
$IMU,28903.996,-0.366,-0.854,0.244,1.00244,0.02001,0.00488,26.67
$MAG,28903.998,-0.822,-0.081,-0.247,25.6
$IMU,28903.999,-0.305,-0.549,0.183,0.99902,0.02197,0.00341,26.67
$IMU,28904.001,-0.244,-0.488,0.183,0.99658,0.02246,0.00585,26.67
$IMU,28904.003,-0.183,0.061,0.183,0.99853,0.02343,0.00244,26.67
$IMU,28904.006,-0.183,0.549,0.244,1.00000,0.02587,0.00488,26.67
$MAG,28904.008,-0.817,-0.078,-0.243,25.6
$IMU,28904.008,-0.305,0.671,0.305,0.99511,0.02343,0.01220,26.67
$BARO,28904.010,86054.69,27.08
$IMU,28904.010,-0.427,0.732,0.244,0.98925,0.02050,0.01562,26.67
$IMU,28904.013,-0.488,0.305,0.183,0.98828,0.02001,0.01318,26.67
$IMU,28904.015,-0.976,0.061,0.183,0.98632,0.02490,0.00000,26.68
$IMU,28904.017,-0.671,-0.854,0.244,0.99951,0.01220,0.03466,26.68
$MAG,28904.019,-0.817,-0.082,-0.253,25.7
$IMU,28904.020,-0.488,-0.427,0.244,0.98876,0.01025,0.00341,26.68
$IMU,28904.022,-0.488,-1.098,0.183,0.99414,0.01269,0.02392,26.68
$IMU,28904.024,-0.366,-1.403,0.122,0.99951,0.00878,0.01367,26.68
$IMU,28904.027,-0.366,-1.464,0.061,1.00537,0.01318,0.01757,26.68
$MAG,28904.029,-0.814,-0.078,-0.249,25.6
$IMU,28904.029,-0.366,-1.403,0.000,0.99658,0.01220,0.01904,26.68
$IMU,28904.031,-0.305,-1.403,0.000,0.99609,0.01123,0.01611,26.68
$IMU,28904.034,-0.244,-1.281,0.000,0.99462,0.00830,0.01855,26.69
$IMU,28904.036,-0.305,-0.854,0.061,0.99560,0.00488,0.01464,26.69
$IMU,28904.038,-0.427,-0.732,0.061,1.00439,0.00585,0.02001,26.69
$MAG,28904.039,-0.813,-0.075,-0.250,25.7
$IMU,28904.041,-0.366,-0.610,0.061,0.99658,0.00390,0.02001,26.69
$IMU,28904.043,-0.305,-0.488,0.061,0.99560,0.00439,0.02050,26.69
$IMU,28904.045,-0.183,-0.549,0.061,0.99609,0.00878,0.01611,26.69
$IMU,28904.048,-0.122,-0.366,0.000,0.99755,0.00781,0.01562,26.69
$MAG,28904.049,-0.810,-0.072,-0.240,25.6
$IMU,28904.050,-0.183,-0.061,-0.061,0.99902,-0.00048,0.01904,26.69
$IMU,28904.052,-0.244,0.183,0.000,0.99707,-0.00146,0.02001,26.68
$IMU,28904.055,-0.183,0.183,-0.061,0.99658,0.00244,0.01806,26.68
$IMU,28904.057,-0.061,0.061,-0.061,0.98974,-0.00244,0.01757,26.68
$MAG,28904.059,-0.813,-0.081,-0.250,25.6
$IMU,28904.059,0.244,-0.244,-0.061,0.98876,-0.00439,0.01953,26.68
$IMU,28904.062,0.244,-0.427,-0.122,0.99267,-0.00537,0.01708,26.68
$IMU,28904.064,0.305,-0.732,-0.061,1.00000,-0.00195,0.02490,26.68
$IMU,28904.067,0.183,0.122,0.000,1.00488,-0.00195,0.00830,26.68
$MAG,28904.069,-0.805,-0.075,-0.250,25.6
$IMU,28904.069,-0.305,0.793,0.122,1.00878,0.00048,0.01269,26.68
$IMU,28904.071,-0.427,1.098,0.183,1.00341,0.00195,0.01660,26.69
$IMU,28904.074,-0.366,0.976,0.061,0.99755,0.00439,0.02734,26.69
$IMU,28904.076,-0.244,0.610,-0.122,0.99511,0.00732,0.02148,26.69
$IMU,28904.078,-0.183,0.427,-0.244,0.99658,0.00878,0.02050,26.69
$MAG,28904.079,-0.819,-0.075,-0.249,25.7
$IMU,28904.081,-0.122,-0.122,-0.366,1.00048,0.01025,0.02099,26.69
$IMU,28904.083,-0.122,-0.061,-0.366,1.00244,0.01123,0.01757,26.69
$IMU,28904.085,-0.061,0.061,-0.427,0.99560,0.01269,0.02294,26.69
$IMU,28904.088,-0.122,-0.244,-0.488,0.99951,0.01464,0.02490,26.69
$MAG,28904.089,-0.811,-0.067,-0.252,25.7
$IMU,28904.090,-0.122,0.183,-0.488,0.99658,0.01855,0.01708,26.64
$IMU,28904.092,-0.183,0.061,-0.427,0.99755,0.01757,0.02685,26.64
$IMU,28904.095,-0.122,-0.061,-0.427,0.99853,0.02246,0.02197,26.64
$IMU,28904.097,0.000,0.122,-0.366,0.99707,0.02441,0.01757,26.64
$MAG,28904.099,-0.802,-0.087,-0.243,25.7
$IMU,28904.099,-0.122,0.244,-0.366,0.99658,0.02246,0.02441,26.64
$IMU,28904.102,-0.183,0.488,-0.244,0.99658,0.02636,0.02392,26.64
$IMU,28904.104,-0.061,0.305,-0.366,0.99707,0.02490,0.02294,26.64
$IMU,28904.106,-0.061,0.244,-0.366,0.99462,0.02294,0.02441,26.64
$IMU,28904.109,-0.122,0.122,-0.244,0.99707,0.02929,0.02099,26.70
$MAG,28904.109,-0.808,-0.081,-0.249,25.6
$IMU,28904.111,-0.061,0.061,-0.183,0.99755,0.02783,0.01855,26.70
$BARO,28904.112,86045.87,27.09
$IMU,28904.113,-0.061,-0.122,-0.183,1.00000,0.02539,0.02050,26.70
$IMU,28904.116,-0.122,-0.183,-0.244,0.99755,0.02783,0.02099,26.70
$IMU,28904.118,-0.122,-0.122,-0.244,0.99707,0.03125,0.01562,26.70
$MAG,28904.119,-0.810,-0.076,-0.249,25.6
$IMU,28904.120,-0.061,-0.244,-0.183,0.99658,0.02441,0.01416,26.70
$IMU,28904.123,-0.122,-0.183,-0.122,0.99804,0.02099,0.01464,26.70
$IMU,28904.125,-0.244,-0.061,-0.183,0.99853,0.02246,0.00976,26.70
$IMU,28904.128,-0.183,-0.061,-0.122,0.99804,0.02392,0.00830,26.69
$MAG,28904.129,-0.820,-0.085,-0.256,25.7
$IMU,28904.130,-0.122,0.000,-0.122,0.99804,0.02099,0.00976,26.69
$IMU,28904.132,-0.183,0.061,-0.183,0.99511,0.02001,0.00878,26.69
$IMU,28904.135,-0.244,-0.061,-0.122,0.99755,0.02050,0.00585,26.69
$IMU,28904.137,-0.183,0.122,-0.061,1.00048,0.01562,0.00634,26.69
$MAG,28904.139,-0.813,-0.075,-0.244,25.8
$IMU,28904.139,-0.244,-0.122,-0.122,1.00048,0.01953,0.00732,26.69
$IMU,28904.142,-0.244,0.000,-0.061,0.99658,0.01806,0.00390,26.69
$IMU,28904.144,-0.305,0.000,0.000,0.99658,0.01562,0.00341,26.69
$IMU,28904.146,-0.305,-0.122,-0.122,0.99511,0.01611,-0.00097,26.70
$IMU,28904.149,-0.305,-0.061,-0.122,0.99658,0.01660,0.00146,26.70
$MAG,28904.150,-0.808,-0.078,-0.252,25.7
$IMU,28904.151,-0.366,-0.122,-0.122,0.99902,0.01513,-0.00048,26.70
$IMU,28904.153,-0.427,-0.122,-0.122,0.99902,0.01757,-0.00048,26.70
$IMU,28904.156,-0.366,-0.061,-0.061,0.99609,0.01269,0.00146,26.70
$IMU,28904.158,-0.305,-0.122,-0.061,0.99804,0.01660,-0.00097,26.70
$MAG,28904.160,-0.817,-0.076,-0.250,25.6
$IMU,28904.160,-0.244,-0.061,-0.061,0.99707,0.01513,-0.00341,26.70
$IMU,28904.163,-0.244,0.061,0.000,0.99511,0.01220,-0.00146,26.70
$IMU,28904.165,-0.183,0.000,-0.122,1.00048,0.01416,-0.00390,26.65
$IMU,28904.167,-0.122,0.122,-0.183,0.99804,0.01367,-0.00488,26.65
$MAG,28904.170,-0.811,-0.072,-0.244,25.6
$IMU,28904.170,-0.122,0.244,-0.122,0.99902,0.01708,-0.00341,26.65
$IMU,28904.172,-0.122,0.183,-0.122,0.99658,0.01708,-0.00146,26.65
$IMU,28904.174,-0.061,0.122,-0.122,0.99658,0.01513,-0.00439,26.65
$IMU,28904.177,0.000,-0.061,0.000,0.99707,0.01611,-0.00439,26.65
$IMU,28904.179,0.000,-0.122,-0.122,0.99511,0.01708,-0.00341,26.65
$MAG,28904.180,-0.811,-0.081,-0.249,25.6
$IMU,28904.181,-0.122,0.061,-0.122,0.99755,0.01318,-0.00585,26.65
$IMU,28904.184,-0.122,0.000,-0.122,0.99707,0.01660,-0.00683,26.67
$IMU,28904.186,-0.122,0.061,-0.122,0.99755,0.01513,-0.00634,26.67
$IMU,28904.188,-0.061,0.061,-0.122,1.00048,0.01806,-0.00732,26.67
$MAG,28904.190,-0.820,-0.079,-0.250,25.7
$IMU,28904.191,-0.122,0.183,-0.122,1.00048,0.01708,-0.00732,26.67
$IMU,28904.193,-0.183,0.061,-0.183,0.99902,0.01416,-0.00830,26.67
$IMU,28904.196,-0.183,0.122,-0.183,0.99755,0.01513,-0.00683,26.67
$IMU,28904.198,-0.305,0.366,-0.122,0.99462,0.01660,-0.00488,26.67
$MAG,28904.200,-0.811,-0.078,-0.256,25.8
$IMU,28904.200,-0.244,0.061,-0.183,0.99755,0.01904,-0.00439,26.67
$IMU,28904.203,-0.305,0.244,-0.244,0.99609,0.02099,-0.00439,26.70
$IMU,28904.205,-0.305,0.244,-0.183,1.00097,0.02050,-0.00537,26.70
$IMU,28904.207,-0.366,0.366,-0.122,0.99853,0.02099,-0.00341,26.70
$MAG,28904.210,-0.819,-0.073,-0.249,25.7
$IMU,28904.210,-0.488,0.427,-0.061,1.00097,0.01757,-0.00390,26.70
$IMU,28904.212,-0.061,0.671,-0.122,0.99365,0.02001,0.00146,26.70
$BARO,28904.213,86044.38,27.09
$IMU,28904.214,-0.488,-0.305,-0.122,1.00292,0.01660,0.00000,26.70
$IMU,28904.217,-0.366,0.549,-0.061,0.99658,0.02392,-0.00976,26.70
$IMU,28904.219,-0.366,0.549,0.000,0.99804,0.02197,0.00048,26.70
$MAG,28904.220,-0.819,-0.073,-0.253,25.7
$IMU,28904.221,-0.488,0.488,-0.061,0.99658,0.02343,-0.00585,26.67
$IMU,28904.224,-0.366,0.732,-0.061,0.99414,0.02636,0.00244,26.67
$IMU,28904.226,-0.427,0.366,-0.061,1.00537,0.02246,0.00292,26.67
$IMU,28904.228,-0.305,0.366,-0.122,0.99755,0.02343,-0.00244,26.67
$MAG,28904.230,-0.811,-0.082,-0.256,25.7
$IMU,28904.231,-0.244,0.122,0.000,1.00195,0.02392,0.00292,26.67
$IMU,28904.233,-0.244,0.122,-0.061,0.99853,0.02294,-0.00097,26.67
$IMU,28904.235,-0.244,0.183,-0.061,0.99707,0.02490,0.00048,26.67
$IMU,28904.238,-0.244,0.305,0.000,0.99462,0.02343,0.00048,26.67
$MAG,28904.240,-0.816,-0.079,-0.252,25.6
$IMU,28904.240,-0.244,0.366,-0.061,0.99707,0.02197,0.00146,26.64
$IMU,28904.242,-0.244,0.183,-0.061,1.00292,0.01855,0.00341,26.64
$IMU,28904.245,-0.244,0.244,0.000,1.00146,0.02148,0.00292,26.64
$IMU,28904.247,-0.305,0.366,-0.061,0.99853,0.02685,0.00439,26.64
$IMU,28904.249,-0.488,0.366,0.061,0.99609,0.02246,0.00292,26.64
$MAG,28904.250,-0.811,-0.082,-0.250,25.6
$IMU,28904.252,-0.488,0.427,0.061,0.99609,0.02148,0.00439,26.64
$IMU,28904.254,-0.488,0.305,0.061,0.99609,0.02197,0.00683,26.64
$IMU,28904.257,-0.427,0.061,0.061,0.99609,0.02050,0.00781,26.64
$IMU,28904.259,-0.366,-0.122,0.061,0.99511,0.01855,0.00781,26.68
$MAG,28904.260,-0.811,-0.076,-0.253,25.7
$IMU,28904.261,-0.366,-0.122,0.000,0.99267,0.01855,0.00830,26.68
$IMU,28904.264,-0.366,-0.183,0.122,0.99511,0.01708,0.00683,26.68
$IMU,28904.266,-0.366,-0.122,0.122,0.99707,0.01611,0.01220,26.68
$IMU,28904.268,-0.427,-0.061,0.122,0.99853,0.01562,0.01416,26.68
$MAG,28904.270,-0.814,-0.075,-0.250,25.7
$IMU,28904.271,-0.366,-0.061,0.061,1.00048,0.01416,0.01513,26.68
$IMU,28904.273,-0.366,0.122,0.000,1.00244,0.01318,0.01318,26.68
$IMU,28904.275,-0.427,0.244,0.061,1.00000,0.01074,0.01367,26.68
$IMU,28904.278,-0.427,0.305,0.122,0.99853,0.01123,0.01953,26.69
$IMU,28904.280,-0.488,0.488,0.061,0.99511,0.01171,0.01855,26.69
$MAG,28904.281,-0.810,-0.078,-0.243,25.7
$IMU,28904.282,-0.427,0.671,0.061,1.00000,0.01220,0.01855,26.69
$IMU,28904.285,-0.427,0.732,0.000,0.99804,0.00976,0.02001,26.69
$IMU,28904.287,-0.366,0.732,0.061,0.99804,0.00927,0.02148,26.69
$IMU,28904.289,-0.366,0.671,0.000,0.99560,0.01074,0.02392,26.69
$MAG,28904.291,-0.814,-0.082,-0.253,25.7
$IMU,28904.292,-0.244,0.427,0.061,0.99414,0.01123,0.02734,26.69
$IMU,28904.294,-0.244,0.061,0.000,0.99462,0.01220,0.02734,26.69
$IMU,28904.296,-0.183,-0.061,0.000,0.99755,0.01220,0.02636,26.66
$IMU,28904.299,-0.305,0.183,0.061,0.99951,0.01416,0.02539,26.66
$MAG,28904.301,-0.820,-0.079,-0.246,25.7
$IMU,28904.301,-0.183,0.061,0.061,0.99707,0.00976,0.02880,26.66
$IMU,28904.303,-0.183,0.122,0.061,0.99951,0.01123,0.03076,26.66
$IMU,28904.306,-0.244,-0.305,0.305,1.00634,0.01171,0.02978,26.66
$IMU,28904.308,-0.061,-2.075,1.892,1.02880,0.03027,0.04687,26.66
$IMU,28904.310,0.488,-5.249,3.417,0.97412,0.01660,0.07080,26.66
$MAG,28904.311,-0.814,-0.072,-0.256,25.7
$IMU,28904.313,0.610,-5.371,1.586,0.98974,-0.00341,-0.01513,26.66
$BARO,28904.315,86048.94,27.08
$IMU,28904.315,-0.183,-1.647,0.183,0.98925,-0.00097,-0.02734,26.71
$IMU,28904.318,-0.732,1.342,-0.122,0.99414,0.01269,0.03027,26.71
$IMU,28904.320,-0.427,0.366,-0.061,0.98632,0.01513,0.05371,26.71
$MAG,28904.321,-0.820,-0.073,-0.252,25.6
$IMU,28904.322,-0.305,-0.610,-0.061,1.00390,0.01220,0.01562,26.71
$IMU,28904.325,-0.488,0.122,-0.122,1.00341,0.01269,0.01513,26.71
$IMU,28904.327,-0.427,0.244,0.000,0.99316,0.01513,0.03173,26.71
$IMU,28904.329,-0.244,-0.061,-0.061,1.00146,0.01074,0.01904,26.71
$MAG,28904.331,-0.814,-0.073,-0.246,25.7
$IMU,28904.332,-0.366,0.366,-0.122,1.00244,0.01416,0.01953,26.71
$IMU,28904.334,-0.305,0.488,-0.183,0.99511,0.01074,0.02783,26.66
$IMU,28904.336,-0.183,0.183,-0.061,0.99755,0.00976,0.02099,26.66
$IMU,28904.339,-0.122,0.366,-0.122,1.00000,0.01171,0.01757,26.66
$MAG,28904.341,-0.810,-0.084,-0.258,25.6
$IMU,28904.341,-0.183,0.610,-0.183,0.99658,0.01269,0.02197,26.66
$IMU,28904.343,-0.122,0.305,-0.122,0.99707,0.01464,0.02050,26.66
$IMU,28904.346,-0.183,0.244,-0.122,0.99658,0.01416,0.01611,26.66
$IMU,28904.348,-0.183,0.305,-0.122,0.99804,0.01367,0.01611,26.66
$IMU,28904.350,-0.183,0.122,-0.183,0.99902,0.01660,0.01953,26.66
$MAG,28904.351,-0.826,-0.085,-0.246,25.7
$IMU,28904.353,-0.183,0.122,-0.183,1.00097,0.01708,0.02050,26.67
$IMU,28904.355,-0.427,0.183,-0.183,0.99902,0.01660,0.01318,26.67
$IMU,28904.357,-0.305,-0.244,-0.122,0.98876,0.01025,0.01806,26.67
$IMU,28904.360,-0.122,-0.488,-0.183,1.00292,0.01367,0.00683,26.67
$MAG,28904.361,-0.814,-0.081,-0.252,25.7
$IMU,28904.362,-0.427,0.000,-0.183,1.00146,0.01708,0.00292,26.67
$IMU,28904.364,-0.549,0.244,-0.183,0.99853,0.01562,0.01171,26.67
$IMU,28904.367,-0.305,0.183,-0.183,0.99755,0.01806,0.00927,26.67
$IMU,28904.369,-0.061,0.366,-0.183,1.00048,-0.00292,0.01074,26.67
$MAG,28904.371,-0.810,-0.070,-0.261,25.7
$IMU,28904.371,-0.122,-0.244,-0.183,0.98730,0.03417,0.01757,26.64
$IMU,28904.374,-0.183,-0.549,-0.183,0.98925,0.01708,-0.00048,26.64
$IMU,28904.376,0.000,-0.183,-0.061,1.00781,0.01513,0.00732,26.64
$IMU,28904.379,0.000,0.366,-0.122,1.00000,0.02343,-0.00146,26.64
$MAG,28904.381,-0.823,-0.076,-0.252,25.7
$IMU,28904.381,-0.183,0.610,-0.122,0.99365,0.02001,0.01904,26.64
$IMU,28904.383,-0.183,0.305,-0.061,1.00097,0.02392,0.00390,26.64
$IMU,28904.386,-0.244,0.610,-0.061,0.99511,0.02050,-0.00146,26.64
$IMU,28904.388,-0.183,0.244,-0.122,0.99658,0.02050,0.01171,26.64
$IMU,28904.390,0.000,0.061,-0.122,0.99023,0.02343,0.00341,26.65
$MAG,28904.391,-0.811,-0.079,-0.250,25.7
$IMU,28904.393,-0.122,-0.244,-0.061,1.00195,0.02148,-0.00048,26.65
$IMU,28904.395,-0.122,0.000,-0.061,0.99462,0.02392,-0.00439,26.65
$IMU,28904.397,-0.183,0.183,-0.061,0.99658,0.02392,0.00000,26.65
$IMU,28904.400,-0.061,0.122,-0.061,0.99853,0.02343,0.00195,26.65
$MAG,28904.401,-0.808,-0.078,-0.247,25.6
$IMU,28904.402,-0.183,0.183,0.000,0.99707,0.02099,-0.00048,26.65
$IMU,28904.404,-0.244,0.122,0.061,1.00000,0.02148,0.00000,26.65
$IMU,28904.407,-0.122,0.000,0.061,0.99755,0.02001,-0.00390,26.65
$IMU,28904.409,-0.244,0.000,0.122,0.99951,0.02294,-0.00390,26.65
$IMU,28904.411,-0.244,-0.122,0.305,1.00732,0.02490,-0.00341,26.65
$MAG,28904.412,-0.822,-0.075,-0.250,26.0
$IMU,28904.414,-0.122,-1.220,0.854,1.02246,0.02197,0.00634,26.65
$BARO,28904.416,86049.28,27.08
$IMU,28904.416,0.122,-2.746,1.159,1.00341,0.01806,0.01611,26.65
$IMU,28904.418,0.183,-3.479,0.366,0.98828,0.01464,-0.00732,26.65
$IMU,28904.421,-0.183,-2.136,0.061,0.98291,0.01269,-0.03125,26.65
$MAG,28904.422,-0.808,-0.075,-0.250,25.8
$IMU,28904.423,-0.427,0.122,0.122,0.99560,0.01660,-0.01953,26.65
$IMU,28904.425,-0.427,0.732,0.000,0.99169,0.01855,0.00830,26.65
$IMU,28904.428,-0.366,0.183,-0.061,0.99267,0.01855,0.00488,26.63
$IMU,28904.430,-0.366,-0.122,-0.061,0.99707,0.01464,-0.00683,26.63
$MAG,28904.432,-0.814,-0.078,-0.253,25.7
$IMU,28904.432,-0.488,0.366,0.000,0.99707,0.01123,-0.00488,26.63
$IMU,28904.435,-0.427,0.305,0.000,0.99902,0.01220,0.00097,26.63
$IMU,28904.437,-0.305,0.122,0.000,0.99609,0.01269,-0.00048,26.63
$IMU,28904.439,-0.183,0.061,0.000,0.99755,0.01318,-0.00244,26.63
$MAG,28904.442,-0.826,-0.087,-0.253,25.7
$IMU,28904.442,-0.183,0.305,0.000,0.99609,0.01464,-0.00195,26.63
$IMU,28904.444,-0.244,0.305,0.000,0.99755,0.01416,0.00000,26.63
$IMU,28904.447,-0.122,0.183,0.000,0.99609,0.01123,-0.00097,26.67
$IMU,28904.449,-0.183,0.366,0.000,1.00097,0.01611,-0.00195,26.67
$IMU,28904.451,-0.061,0.183,0.000,0.99902,0.01562,-0.00439,26.67
$MAG,28904.452,-0.823,-0.082,-0.252,25.8
$IMU,28904.454,-0.061,0.244,-0.061,1.00097,0.01367,-0.00390,26.67
$IMU,28904.456,-0.122,0.305,0.000,0.99951,0.01562,-0.00537,26.67
$IMU,28904.458,-0.061,0.244,-0.061,0.99707,0.01416,-0.00439,26.67
$IMU,28904.461,-0.061,0.183,-0.061,0.99951,0.01464,-0.00341,26.67
$MAG,28904.462,-0.822,-0.079,-0.250,25.6
$IMU,28904.463,-0.061,0.305,-0.122,0.99609,0.01464,-0.00146,26.67
$IMU,28904.465,-0.183,0.244,-0.122,0.99902,0.01171,-0.00146,26.67
$IMU,28904.468,-0.122,0.061,-0.061,1.00195,0.01562,-0.00244,26.67
$IMU,28904.470,-0.244,0.366,-0.061,1.00244,0.01708,-0.00146,26.67
$MAG,28904.472,-0.810,-0.084,-0.249,25.8
$IMU,28904.472,-0.244,0.366,-0.122,1.00000,0.01708,-0.00146,26.67
$IMU,28904.475,-0.305,0.488,-0.122,0.99951,0.01757,-0.00097,26.67
$IMU,28904.477,-0.305,0.488,-0.061,0.99511,0.02099,-0.00195,26.67
$IMU,28904.479,-0.305,0.427,-0.122,0.99511,0.01660,-0.00097,26.67
$MAG,28904.482,-0.808,-0.075,-0.255,25.6
$IMU,28904.482,-0.305,0.183,-0.122,0.99755,0.01757,-0.00048,26.67
$IMU,28904.484,-0.427,0.549,-0.061,0.99707,0.02050,0.00146,26.68
$IMU,28904.486,-0.366,0.305,-0.122,0.99658,0.02148,0.00292,26.68
$IMU,28904.489,-0.366,0.244,-0.183,0.99414,0.01953,0.00488,26.68
$IMU,28904.491,-0.305,0.122,-0.061,0.99414,0.01708,0.00439,26.68
$MAG,28904.492,-0.813,-0.079,-0.250,25.6
$IMU,28904.493,-0.244,0.183,-0.061,0.99218,0.01708,0.00585,26.68
$IMU,28904.496,-0.183,0.183,-0.061,0.99462,0.02197,0.00634,26.68
$IMU,28904.498,-0.122,0.366,-0.061,0.99365,0.02246,0.00781,26.68
$IMU,28904.500,0.000,0.244,0.000,0.99414,0.02392,0.00830,26.68
$MAG,28904.502,-0.805,-0.084,-0.249,25.6
$IMU,28904.503,0.122,0.061,0.000,0.99658,0.02050,0.01025,26.66
$IMU,28904.505,0.122,0.366,-0.061,0.99951,0.01904,0.00830,26.66
$IMU,28904.508,0.488,0.549,0.000,0.99609,0.00390,0.01416,26.66
$IMU,28904.510,0.122,0.061,-0.122,0.99853,0.03271,0.03320,26.66
$MAG,28904.512,-0.814,-0.073,-0.250,25.6
$IMU,28904.512,-0.061,0.488,-0.061,0.99365,0.01562,-0.00097,26.66
$IMU,28904.515,0.000,0.427,0.000,1.00341,0.01855,0.02050,26.66
$BARO,28904.517,86050.89,27.08
$IMU,28904.517,-0.183,0.671,-0.061,0.99609,0.01904,0.00732,26.66
$IMU,28904.519,-0.366,0.488,0.000,0.99316,0.02197,0.03564,26.66
$MAG,28904.522,-0.808,-0.075,-0.255,25.7
$IMU,28904.522,-0.305,0.305,0.183,0.98535,0.00927,0.01953,26.67
$IMU,28904.524,0.000,-0.244,0.122,1.00390,0.02099,0.01953,26.67
$IMU,28904.526,-0.122,-0.061,0.061,1.01367,0.01708,0.00537,26.67
$IMU,28904.529,-0.488,0.854,0.061,0.99121,0.01806,0.02783,26.67
$IMU,28904.531,-0.305,0.122,0.122,0.99609,0.01562,0.02441,26.67
$MAG,28904.532,-0.817,-0.081,-0.250,25.7
$IMU,28904.533,-0.122,0.000,0.122,1.00244,0.02050,0.01708,26.67
$IMU,28904.536,-0.305,0.122,0.183,0.99707,0.01513,0.02050,26.67
$IMU,28904.538,-0.244,-0.427,0.183,1.00097,0.01464,0.02050,26.67
$IMU,28904.540,-0.366,-0.488,0.122,1.01269,0.01660,0.01318,26.69
$MAG,28904.543,-0.817,-0.067,-0.258,25.7
$IMU,28904.543,-0.305,-0.854,0.244,1.00927,0.01708,0.02197,26.69
$IMU,28904.545,-0.305,-1.586,0.183,0.99414,0.01562,0.02783,26.69
$IMU,28904.547,-0.183,-1.831,0.000,0.98632,0.01708,0.01708,26.69
$IMU,28904.550,-0.122,-1.281,0.122,0.99267,0.01660,0.00537,26.69
$IMU,28904.552,-0.366,-0.061,0.122,0.99853,0.01660,0.01757,26.69
$MAG,28904.553,-0.816,-0.070,-0.253,25.6
$IMU,28904.554,-0.244,-0.122,0.061,0.99414,0.01464,0.02148,26.69
$IMU,28904.557,-0.183,-0.061,0.122,0.99902,0.01562,0.01757,26.69
$IMU,28904.559,-0.244,-0.122,0.122,0.99658,0.01123,0.01953,26.68
$IMU,28904.561,-0.366,0.000,0.061,0.99462,0.00878,0.02099,26.68
$MAG,28904.563,-0.811,-0.081,-0.247,25.6
$IMU,28904.564,-0.366,-0.122,0.000,0.99609,0.00683,0.01757,26.68
$IMU,28904.566,-0.305,-0.183,0.000,0.99853,0.00878,0.01953,26.68
$VBAT,28904.568,4.121
$IMU,28904.569,-0.305,-0.305,0.061,0.99511,0.00878,0.02050,26.68
$IMU,28904.571,-0.305,-0.427,0.000,0.99462,0.00830,0.02050,26.68
$MAG,28904.573,-0.814,-0.085,-0.246,25.7
$IMU,28904.573,-0.244,-0.488,0.061,0.99804,0.00976,0.02099,26.68
$IMU,28904.576,-0.183,-0.610,0.000,0.99414,0.01416,0.01855,26.68
$IMU,28904.578,-0.244,-0.549,-0.061,0.99853,0.00537,0.02050,26.67
$IMU,28904.580,-0.305,-0.366,-0.061,0.99902,0.00732,0.01953,26.67
$MAG,28904.583,-0.816,-0.078,-0.253,25.7
$IMU,28904.583,-0.244,-0.427,-0.061,0.99951,0.00830,0.01513,26.67
$IMU,28904.585,-0.183,-0.427,-0.061,0.99951,0.00439,0.01513,26.67
$IMU,28904.587,-0.122,-0.366,-0.122,0.99511,0.00488,0.01318,26.67
$IMU,28904.590,-0.061,-0.061,-0.183,0.99658,0.00634,0.01367,26.67
$IMU,28904.592,-0.122,0.061,-0.061,0.99853,0.01025,0.01367,26.67
$MAG,28904.593,-0.814,-0.087,-0.247,25.7
$IMU,28904.594,-0.122,0.061,-0.122,0.99755,0.00878,0.01367,26.67
$IMU,28904.597,-0.122,0.061,-0.122,0.99853,0.00732,0.01074,26.67
$IMU,28904.599,0.000,0.000,-0.183,0.99853,0.01416,0.01367,26.67
$IMU,28904.601,-0.122,0.061,-0.183,0.99902,0.01464,0.01220,26.67
$MAG,28904.603,-0.816,-0.075,-0.246,25.7
$IMU,28904.604,-0.122,0.305,-0.183,0.99707,0.01074,0.01123,26.67
$IMU,28904.606,-0.244,0.305,-0.183,1.00000,0.01269,0.01123,26.67
$IMU,28904.608,-0.183,0.244,-0.122,0.99951,0.01367,0.01123,26.67
$IMU,28904.611,-0.183,0.122,-0.183,0.99902,0.01562,0.01025,26.67
$MAG,28904.613,-0.817,-0.081,-0.252,25.7
$IMU,28904.613,-0.183,0.122,-0.183,0.99511,0.01757,0.01025,26.67
$IMU,28904.615,-0.244,0.000,-0.183,0.99609,0.01562,0.00781,26.69
$IMU,28904.618,-0.305,0.061,-0.244,1.00146,0.01660,0.00683,26.69
$BARO,28904.619,86045.60,27.09
$IMU,28904.620,-0.305,0.183,-0.244,1.00292,0.02050,0.00732,26.69
$IMU,28904.622,-0.183,0.183,-0.183,0.99804,0.01904,0.00976,26.69
$MAG,28904.623,-0.811,-0.075,-0.259,25.7
$IMU,28904.625,-0.122,0.000,-0.183,0.99707,0.01953,0.00537,26.69
$IMU,28904.627,-0.183,0.122,-0.183,0.99707,0.01953,0.00341,26.69
$IMU,28904.630,-0.183,0.305,-0.061,0.99755,0.01953,0.00683,26.69
$IMU,28904.632,-0.244,0.427,-0.122,0.99804,0.02050,0.00878,26.69
$MAG,28904.633,-0.808,-0.073,-0.244,25.6
$IMU,28904.634,-0.244,0.244,-0.183,0.99902,0.01953,0.00585,26.75
$IMU,28904.637,0.000,0.122,-0.122,0.99804,0.01757,0.00585,26.75
$IMU,28904.639,0.000,0.305,-0.183,1.00000,0.02148,0.00390,26.75
$IMU,28904.641,-0.061,0.305,-0.183,0.99414,0.02148,0.00439,26.75
$MAG,28904.643,-0.819,-0.078,-0.243,25.7
$IMU,28904.644,0.061,0.305,-0.183,0.99511,0.02148,0.00341,26.75
$IMU,28904.646,0.122,0.244,-0.122,0.99707,0.02294,0.00537,26.75
$IMU,28904.648,0.244,0.488,-0.122,1.02148,-0.00146,-0.00341,26.75
$IMU,28904.651,1.220,2.014,-0.366,1.02294,0.04833,-0.11621,26.75
$MAG,28904.653,-0.813,-0.079,-0.256,25.6
$IMU,28904.653,-0.610,4.150,-0.183,1.01806,0.00341,-0.03027,26.72
$IMU,28904.655,0.183,4.638,-0.061,0.93408,0.01904,0.11816,26.72
$IMU,28904.658,0.122,-1.159,0.061,0.95751,0.01806,0.09375,26.72
$IMU,28904.660,0.122,-3.051,0.000,1.01806,0.02539,-0.02587,26.72
$IMU,28904.662,-0.366,-0.549,0.061,1.01123,0.02099,-0.01660,26.72
$MAG,28904.663,-0.817,-0.075,-0.253,25.8
$IMU,28904.665,-0.122,0.366,0.061,1.00341,0.01318,0.01708,26.72
$IMU,28904.667,0.244,0.244,0.000,0.99902,0.02392,-0.01708,26.72
$IMU,28904.669,-0.061,0.366,-0.061,0.99218,0.02099,0.00781,26.72
$IMU,28904.672,-0.061,0.183,0.000,0.97753,0.02539,0.03271,26.66
$MAG,28904.674,-0.813,-0.073,-0.247,25.7
$IMU,28904.674,-0.122,-1.342,0.000,0.99462,0.02490,0.01464,26.66
$IMU,28904.676,-0.244,-1.281,0.000,1.00195,0.02392,-0.00878,26.66
$IMU,28904.679,-0.244,-0.793,0.122,0.99853,0.02197,0.00439,26.66
$IMU,28904.681,-0.244,-0.732,0.122,0.99169,0.02099,0.01562,26.66
$IMU,28904.683,-0.122,-1.159,0.000,0.99560,0.01855,0.00390,26.66
$MAG,28904.684,-0.816,-0.078,-0.253,25.6
$IMU,28904.686,-0.244,-0.976,0.000,1.00146,0.01904,0.00292,26.66
$IMU,28904.688,-0.305,-0.610,0.061,0.99755,0.01708,0.00341,26.66
$IMU,28904.690,-0.305,-0.610,0.061,0.99951,0.02050,0.00683,26.65
$IMU,28904.693,-0.183,-0.671,0.183,1.00000,0.01855,0.00683,26.65
$MAG,28904.694,-0.817,-0.078,-0.246,25.7
$IMU,28904.695,-0.183,-0.427,0.122,0.99853,0.01757,0.00341,26.65
$IMU,28904.698,-0.244,-0.610,0.061,1.00146,0.01660,0.00878,26.65
$IMU,28904.700,-0.427,-0.549,0.061,0.99902,0.01416,0.00927,26.65
$IMU,28904.702,-0.244,-0.610,0.061,0.99707,0.01513,0.00439,26.65
$MAG,28904.704,-0.807,-0.078,-0.249,25.6
$IMU,28904.705,-0.366,-0.488,0.061,0.99853,0.01416,0.00634,26.65
$IMU,28904.707,-0.305,-0.488,0.122,0.99462,0.01171,0.00732,26.65
$IMU,28904.709,-0.366,-0.549,0.061,0.99609,0.01171,0.00781,26.71
$IMU,28904.712,-0.366,-0.427,0.122,0.99902,0.01171,0.00537,26.71
$MAG,28904.714,-0.819,-0.076,-0.253,25.7
$IMU,28904.714,-0.244,-0.427,0.122,0.99707,0.01416,0.00683,26.71
$IMU,28904.716,-0.244,-0.305,0.000,0.99902,0.01171,0.00830,26.71
$IMU,28904.719,-0.244,-0.244,0.000,0.99755,0.00927,0.00683,26.71
$BARO,28904.720,86045.45,27.08
$IMU,28904.721,-0.244,-0.305,0.000,0.99853,0.00976,0.00683,26.71
$IMU,28904.723,-0.183,-0.244,0.000,0.99560,0.01220,0.00732,26.71
$MAG,28904.724,-0.816,-0.072,-0.253,25.7
$IMU,28904.726,-0.122,-0.488,0.122,0.99707,0.01367,0.00927,26.71
$IMU,28904.728,-0.122,-0.488,0.061,0.99511,0.01464,0.00732,26.69
$IMU,28904.730,-0.244,-0.427,0.061,0.99658,0.01611,0.01123,26.69
$IMU,28904.733,-0.061,-0.549,0.000,0.99755,0.01416,0.01025,26.69
$MAG,28904.734,-0.822,-0.079,-0.250,25.7
$IMU,28904.735,-0.183,-0.488,0.000,0.99609,0.01416,0.00732,26.69
$IMU,28904.737,-0.122,-0.610,0.061,0.99658,0.01269,0.00927,26.69
$IMU,28904.740,-0.183,-0.549,0.061,0.99365,0.01025,0.01025,26.69
$IMU,28904.742,-0.122,-0.671,0.000,0.99853,0.01269,0.01074,26.69
$MAG,28904.744,-0.813,-0.078,-0.255,25.7
$IMU,28904.744,-0.061,-0.610,0.000,0.99707,0.01513,0.01074,26.69
$IMU,28904.747,-0.183,-0.427,0.000,1.00000,0.01269,0.00976,26.72
$IMU,28904.749,-0.183,-0.427,-0.122,1.00097,0.01171,0.00927,26.72
$IMU,28904.751,-0.244,-0.305,-0.061,1.00146,0.01123,0.00732,26.72
$MAG,28904.754,-0.811,-0.075,-0.255,25.7
$IMU,28904.754,-0.183,-0.183,-0.061,0.99951,0.01220,0.00732,26.72
$IMU,28904.756,-0.122,-0.305,-0.122,1.00292,0.01367,0.00878,26.72
$IMU,28904.759,-0.122,-0.122,-0.061,1.00585,0.01220,0.01123,26.72
$IMU,28904.761,-0.183,-0.122,-0.061,1.00244,0.01220,0.01123,26.72
$IMU,28904.763,-0.244,0.122,-0.061,0.99951,0.01367,0.00878,26.72
$MAG,28904.764,-0.813,-0.076,-0.246,25.7
$IMU,28904.766,0.000,0.122,-0.122,0.99951,0.01269,0.01171,26.72
$IMU,28904.768,-0.061,0.061,-0.122,0.99804,0.01367,0.01123,26.72
$IMU,28904.770,-0.061,0.000,-0.061,0.99658,0.01074,0.01269,26.72
$IMU,28904.773,0.000,-0.122,-0.122,0.99462,0.01220,0.01367,26.72
$MAG,28904.774,-0.816,-0.075,-0.249,25.6
$IMU,28904.775,-0.122,0.000,-0.061,0.99365,0.01416,0.01318,26.72
$IMU,28904.777,-0.183,0.000,-0.122,0.99804,0.01464,0.01171,26.72
$IMU,28904.780,-0.183,-0.061,-0.122,1.00000,0.01171,0.01269,26.72
$IMU,28904.782,-0.183,0.122,-0.122,0.99902,0.01464,0.01269,26.72
$MAG,28904.784,-0.819,-0.073,-0.258,25.6
$IMU,28904.784,-0.122,0.000,-0.122,0.99511,0.01855,0.01025,26.68
$IMU,28904.787,-0.305,0.183,-0.061,0.99365,0.01757,0.01318,26.68
$IMU,28904.789,-0.244,0.244,-0.122,0.99365,0.01367,0.01025,26.68
$IMU,28904.791,-0.244,0.244,-0.122,0.99560,0.01953,0.01074,26.68
$IMU,28904.794,-0.183,0.061,-0.122,0.99609,0.02148,0.01074,26.68
$MAG,28904.795,-0.808,-0.076,-0.253,25.7
$IMU,28904.796,-0.244,-0.122,-0.061,0.99267,0.02001,0.00830,26.68
$IMU,28904.798,-0.244,-0.366,-0.122,0.99316,0.01855,0.01123,26.68
$IMU,28904.801,-0.305,0.000,0.000,0.99609,0.01855,0.00537,26.68
$IMU,28904.803,-0.244,0.122,-0.122,0.99853,0.01953,0.00878,26.71
$MAG,28904.805,-0.814,-0.081,-0.252,25.7
$IMU,28904.805,0.061,0.183,-0.122,1.00585,0.00927,0.00292,26.71
$IMU,28904.808,0.427,0.549,-0.183,1.00390,0.02587,-0.03955,26.71
$IMU,28904.810,-0.061,1.037,-0.122,0.99511,0.01513,0.01562,26.71
$IMU,28904.812,0.183,0.244,-0.061,0.97119,0.02099,0.06347,26.71
$MAG,28904.815,-0.814,-0.079,-0.243,26.0
$IMU,28904.815,0.183,-1.403,-0.061,0.99658,0.02246,0.01123,26.71
$IMU,28904.817,-0.122,-0.671,-0.061,1.00585,0.02246,-0.01025,26.71
$IMU,28904.820,-0.183,0.122,0.000,0.99853,0.01562,0.01269,26.71
$BARO,28904.822,86044.99,27.09
$IMU,28904.822,0.000,-0.427,0.000,0.99853,0.02001,0.01513,26.70
$IMU,28904.824,0.000,-0.488,0.000,1.00341,0.02148,-0.00390,26.70
$MAG,28904.825,-0.807,-0.072,-0.247,25.6
$IMU,28904.827,-0.061,-0.183,0.000,0.99316,0.02050,0.00146,26.70
$IMU,28904.829,-0.122,-0.305,0.122,0.99365,0.01806,0.01660,26.70
$IMU,28904.831,0.000,-0.732,0.061,0.99951,0.02343,0.00830,26.70
$IMU,28904.834,-0.122,-0.671,0.000,1.00439,0.02148,-0.00244,26.70
$MAG,28904.835,-0.807,-0.076,-0.255,25.7
$IMU,28904.836,-0.183,-0.305,0.061,1.00000,0.02001,0.00927,26.70
$IMU,28904.838,-0.244,-0.305,-0.061,0.99511,0.01757,0.00878,26.70
$IMU,28904.841,-0.305,-0.366,0.061,0.99853,0.01757,0.00537,26.67
$IMU,28904.843,-0.244,-0.183,0.000,0.99853,0.01855,0.00537,26.67
$MAG,28904.845,-0.814,-0.072,-0.253,25.8
$IMU,28904.845,-0.244,-0.061,-0.061,0.99414,0.01806,0.00927,26.67
$IMU,28904.848,-0.122,-0.366,0.000,0.99414,0.02050,0.00781,26.67
$IMU,28904.850,-0.183,-0.488,0.122,0.99804,0.01904,0.00634,26.67
$IMU,28904.852,-0.183,-0.366,0.000,0.99902,0.01562,0.00683,26.67
$MAG,28904.855,-0.814,-0.076,-0.262,25.8
$IMU,28904.855,-0.244,-0.305,0.061,0.99804,0.01171,0.00732,26.67
$IMU,28904.857,-0.183,-0.122,0.000,0.99609,0.00585,0.00341,26.67
$IMU,28904.859,-0.183,-0.122,0.000,0.99316,0.03320,0.01318,26.70
$IMU,28904.862,-0.610,-0.793,0.000,0.99658,0.01318,0.01171,26.70
$IMU,28904.864,-0.061,-0.244,0.122,1.00439,0.01806,-0.01269,26.70
$MAG,28904.865,-0.820,-0.067,-0.252,26.1
$IMU,28904.866,-0.183,0.610,0.061,1.00244,0.01757,0.00390,26.70
$HUM,28904.869,46.5,27.5
$IMU,28904.869,-0.183,0.305,0.061,0.99121,0.01513,0.02783,26.70
$IMU,28904.871,-0.183,-0.305,-0.061,0.99560,0.01611,0.00634,26.70
$IMU,28904.873,-0.305,-0.244,0.061,0.99804,0.01562,0.00976,26.70
$MAG,28904.875,-0.823,-0.085,-0.258,25.7
$IMU,28904.876,-0.244,-0.122,0.061,0.99511,0.01318,0.01220,26.70
$IMU,28904.878,-0.305,-0.183,0.000,0.99804,0.01074,0.00976,26.68
$IMU,28904.881,-0.305,-0.244,0.000,0.99902,0.01171,0.00683,26.68
$IMU,28904.883,-0.244,-0.122,0.000,0.99658,0.01123,0.00781,26.68
$MAG,28904.885,-0.817,-0.076,-0.252,25.8
$IMU,28904.885,-0.183,-0.244,0.061,0.99902,0.01171,0.00927,26.68
$IMU,28904.888,-0.183,-0.244,0.000,1.00000,0.01171,0.00830,26.68
$IMU,28904.890,-0.244,-0.244,0.000,0.99902,0.01318,0.01123,26.68
$IMU,28904.892,-0.244,-0.244,0.000,0.99658,0.01123,0.01171,26.68
$MAG,28904.895,-0.816,-0.076,-0.252,25.7
$IMU,28904.895,-0.244,-0.244,0.000,0.99755,0.01318,0.00390,26.68
$IMU,28904.897,-0.244,-0.122,0.000,0.99707,0.01269,0.00537,26.71
$IMU,28904.899,-0.244,-0.183,-0.061,0.99707,0.01171,0.00878,26.71
$IMU,28904.902,-0.244,-0.244,-0.061,0.99658,0.01318,0.00781,26.71
$IMU,28904.904,-0.305,0.000,0.000,0.99902,0.01269,0.00830,26.71
$MAG,28904.905,-0.811,-0.070,-0.256,25.7
$IMU,28904.906,-0.244,-0.183,-0.061,0.99560,0.01611,0.00830,26.71
$IMU,28904.909,-0.244,-0.183,0.000,0.99560,0.01464,0.00781,26.71
$IMU,28904.911,-0.366,-0.122,0.000,1.00000,0.01757,0.00585,26.71
$IMU,28904.913,-0.366,-0.061,-0.061,1.00292,0.01660,0.00732,26.71
$MAG,28904.915,-0.811,-0.073,-0.256,25.8
$IMU,28904.916,-0.305,-0.244,-0.183,1.00146,0.01513,0.00878,26.70
$IMU,28904.918,-0.305,-0.122,-0.122,0.99804,0.01611,0.00878,26.70
$IMU,28904.920,-0.305,-0.122,-0.061,0.99804,0.01708,0.00830,26.70
$BARO,28904.923,86043.65,27.08
$IMU,28904.923,-0.244,-0.122,-0.122,0.99755,0.02099,0.00927,26.70
$MAG,28904.925,-0.817,-0.079,-0.253,25.8
$IMU,28904.925,-0.427,0.122,-0.122,0.99755,0.01660,0.00683,26.70
$IMU,28904.927,-0.305,0.000,-0.061,0.99804,0.01855,0.00878,26.70
$IMU,28904.930,-0.183,0.000,0.000,0.99951,0.01611,0.00781,26.70
$IMU,28904.932,-0.244,-0.061,-0.061,0.99658,0.01416,0.00830,26.70
$IMU,28904.934,-0.244,0.061,0.000,1.00097,0.01367,0.00537,26.64
$MAG,28904.936,-0.816,-0.073,-0.256,26.0
$IMU,28904.937,-0.305,0.061,-0.061,0.99658,0.01806,0.00781,26.64
$IMU,28904.939,-0.183,-0.122,-0.061,0.99365,0.01757,0.00732,26.64
$IMU,28904.941,-0.305,0.061,0.000,0.99658,0.01855,0.00341,26.64
$IMU,28904.944,-0.305,0.183,0.061,1.00000,0.01757,0.00244,26.64
$MAG,28904.946,-0.814,-0.079,-0.258,25.7
$IMU,28904.946,-0.305,0.427,0.000,0.99707,0.01660,0.00683,26.64
$IMU,28904.949,-0.366,0.427,0.000,1.00000,0.01611,0.00878,26.64
$IMU,28904.951,-0.244,0.305,0.000,1.00146,0.01416,0.00488,26.64
$IMU,28904.953,-0.122,0.122,0.000,0.99853,0.02099,0.00683,26.64
$MAG,28904.956,-0.816,-0.078,-0.252,26.0
$IMU,28904.956,-0.183,0.122,-0.061,0.99804,0.02001,0.00634,26.64
$IMU,28904.958,-0.183,0.244,-0.061,0.99609,0.02148,0.00292,26.64
$IMU,28904.960,-0.183,0.183,-0.061,0.99511,0.01611,0.00195,26.64
$IMU,28904.963,-0.183,0.305,-0.061,0.99853,0.01855,0.00048,26.64
$IMU,28904.965,-0.122,0.549,-0.061,1.00195,0.01416,-0.00634,26.64
$MAG,28904.966,-0.810,-0.082,-0.250,25.7
$IMU,28904.967,-0.244,0.671,0.000,0.99755,0.02001,-0.00390,26.64
$IMU,28904.970,-0.122,0.549,0.000,0.99072,0.01220,0.02246,26.64
$IMU,28904.972,-0.122,0.183,0.000,0.99267,0.01562,0.01074,26.68
$IMU,28904.974,-0.244,0.183,0.000,0.99951,0.01513,0.00341,26.68
$MAG,28904.976,-0.810,-0.079,-0.259,25.7
$IMU,28904.977,-0.244,0.366,0.000,0.99560,0.01513,0.01074,26.68
$IMU,28904.979,-0.183,0.122,0.061,0.99853,0.01416,0.00830,26.68
$IMU,28904.981,-0.183,0.244,0.061,0.99853,0.01464,0.00634,26.68
$IMU,28904.984,-0.122,0.000,0.000,0.99511,0.01416,0.00683,26.68
$MAG,28904.986,-0.811,-0.081,-0.246,25.7
$IMU,28904.986,-0.183,-0.061,0.061,0.99755,0.01220,0.00488,26.68
$IMU,28904.988,-0.244,0.183,-0.061,0.99902,0.01416,0.00390,26.68
$IMU,28904.991,-0.244,0.122,-0.061,0.99658,0.01269,0.00732,26.70
$IMU,28904.993,-0.122,-0.061,-0.122,0.99853,0.01367,0.00878,26.70
$IMU,28904.995,-0.183,0.061,-0.061,0.99755,0.01269,0.00537,26.70
$MAG,28904.996,-0.811,-0.073,-0.255,25.7
$IMU,28904.998,-0.183,-0.061,-0.061,0.99609,0.01416,0.00585,26.70
$IMU,28905.000,-0.244,-0.183,-0.061,0.99365,0.01513,0.00439,26.70
$IMU,28905.002,-0.366,0.000,-0.061,0.99560,0.01513,0.00830,26.70
$IMU,28905.005,-0.305,0.000,-0.061,0.99902,0.01660,0.00683,26.70
$MAG,28905.006,-0.813,-0.070,-0.246,25.7
$IMU,28905.007,-0.244,-0.122,-0.061,0.99755,0.01416,0.00927,26.70
$IMU,28905.010,-0.305,-0.061,-0.122,0.99609,0.01269,0.01123,26.69
$IMU,28905.012,-0.366,-0.061,-0.061,0.99658,0.01562,0.01025,26.69
$IMU,28905.014,-0.305,-0.305,-0.061,0.99511,0.01757,0.00683,26.69
$MAG,28905.016,-0.814,-0.085,-0.256,25.8
$IMU,28905.017,-0.244,-0.427,-0.061,0.99609,0.01611,0.01123,26.69
$IMU,28905.019,-0.244,-0.305,0.000,0.99609,0.01562,0.01220,26.69
$IMU,28905.021,-0.305,-0.427,0.061,0.99658,0.01513,0.01220,26.69
$IMU,28905.024,-0.305,-0.488,0.000,0.99804,0.01416,0.01074,26.69
$BARO,28905.025,86050.01,27.09
$MAG,28905.026,-0.820,-0.079,-0.255,25.7
$IMU,28905.026,-0.183,-0.427,-0.061,1.00000,0.01464,0.01074,26.69
$IMU,28905.028,-0.305,-0.244,-0.061,0.99462,0.01708,0.00976,26.68
$IMU,28905.031,-0.244,-0.244,0.000,0.99951,0.01660,0.00878,26.68
$IMU,28905.033,-0.183,-0.366,-0.122,0.99609,0.01708,0.01171,26.68
$IMU,28905.035,-0.122,-0.488,-0.122,0.99560,0.01123,0.00830,26.68
$MAG,28905.036,-0.816,-0.076,-0.252,25.6
$IMU,28905.038,-0.122,-0.488,-0.061,0.99755,0.01464,0.00878,26.68
$IMU,28905.040,-0.183,-0.305,-0.061,0.99853,0.01513,0.00830,26.68
$IMU,28905.042,-0.183,-0.366,0.000,0.99658,0.01367,0.01123,26.68
$IMU,28905.045,-0.122,-0.244,-0.061,0.99316,0.01708,0.00976,26.68
$MAG,28905.046,-0.822,-0.075,-0.249,25.7
$IMU,28905.047,-0.061,-0.366,0.000,0.99658,0.01513,0.00878,26.70
$IMU,28905.049,-0.122,-0.366,0.061,0.99853,0.01904,0.00878,26.70
$IMU,28905.052,-0.183,-0.427,0.000,1.00048,0.01660,0.00781,26.70
$IMU,28905.054,-0.244,-0.305,-0.061,0.99755,0.02050,0.00830,26.70
$MAG,28905.056,-0.816,-0.082,-0.249,25.8
$IMU,28905.056,-0.244,-0.427,-0.122,0.99853,0.01562,0.01123,26.70
$IMU,28905.059,-0.244,-0.366,-0.061,0.99853,0.01757,0.01220,26.70
$IMU,28905.061,-0.244,-0.427,0.000,0.99804,0.01806,0.01220,26.70
$IMU,28905.063,-0.305,-0.427,-0.061,0.99902,0.01708,0.00976,26.70
$IMU,28905.066,-0.305,-0.366,-0.061,0.99853,0.01562,0.00830,26.66
$MAG,28905.067,-0.816,-0.081,-0.247,25.7
$IMU,28905.068,-0.427,-0.244,-0.061,1.00097,0.01904,0.01367,26.66
$IMU,28905.071,-0.305,-0.244,-0.061,1.00000,0.01318,0.01171,26.66
$IMU,28905.073,-0.305,-0.183,-0.061,0.99951,0.01367,0.01123,26.66
$IMU,28905.075,-0.244,-0.122,0.000,0.99804,0.01513,0.01269,26.66
$MAG,28905.077,-0.813,-0.073,-0.247,25.7
$IMU,28905.078,-0.366,0.183,-0.122,0.99853,0.01660,0.00781,26.66
$IMU,28905.080,-0.427,0.122,-0.061,0.99853,0.01416,0.01123,26.66
$IMU,28905.082,-0.305,0.061,-0.061,0.99804,0.01806,0.01074,26.66
$IMU,28905.085,-0.366,-0.122,0.000,0.99560,0.01562,0.01220,26.69
$MAG,28905.087,-0.808,-0.075,-0.247,25.7
$IMU,28905.087,-0.366,-0.244,0.061,0.99755,0.01611,0.01269,26.69
$IMU,28905.089,-0.305,-0.122,0.000,0.99560,0.01611,0.01269,26.69
$IMU,28905.092,-0.427,-0.122,0.000,0.99707,0.01562,0.01269,26.69
$IMU,28905.094,-0.366,0.000,-0.061,0.99462,0.01562,0.01025,26.69
$IMU,28905.096,-0.366,0.061,0.000,0.99560,0.01611,0.01318,26.69
$MAG,28905.097,-0.825,-0.070,-0.255,25.7
$IMU,28905.099,-0.305,-0.122,-0.061,0.99462,0.01757,0.01074,26.69
$IMU,28905.101,-0.244,-0.366,-0.122,0.99609,0.01367,0.01074,26.69
$IMU,28905.103,-0.305,-0.244,0.000,1.00048,0.01513,0.01025,26.69
$IMU,28905.106,-0.183,-0.244,0.000,0.99707,0.01660,0.01025,26.69
$MAG,28905.107,-0.816,-0.078,-0.249,25.8
$IMU,28905.108,-0.244,-0.244,0.000,0.99951,0.01611,0.00634,26.69
$IMU,28905.110,-0.244,-0.183,0.000,0.99707,0.01220,0.00781,26.69
$IMU,28905.113,0.122,-0.122,0.000,1.00683,0.01171,0.02294,26.69
$IMU,28905.115,-0.427,-0.610,0.000,0.97705,0.02832,-0.00537,26.69
$MAG,28905.117,-0.814,-0.084,-0.256,25.6
$IMU,28905.117,-0.610,-0.854,0.061,1.01074,0.00000,0.01269,26.69
$IMU,28905.120,0.183,0.305,0.000,1.00585,0.02246,0.01074,26.69
$IMU,28905.122,-0.305,0.000,0.000,1.00830,0.00976,-0.00097,26.69
$IMU,28905.124,-0.244,0.305,-0.061,0.98828,0.01123,0.01611,26.69
$BARO,28905.126,86056.25,27.09
$MAG,28905.127,-0.814,-0.076,-0.256,25.7
$IMU,28905.127,-0.122,-0.427,0.000,1.00244,0.01025,0.00244,26.69
$IMU,28905.129,-0.244,-0.061,-0.122,0.99804,0.00683,-0.00097,26.69
$IMU,28905.132,-0.244,0.244,-0.061,1.00439,0.01318,-0.01367,26.69
$IMU,28905.134,-0.366,0.793,-0.061,0.99707,0.01416,0.00000,26.69
$IMU,28905.136,-0.305,0.488,0.000,0.98779,0.01025,0.03564,26.69
$MAG,28905.137,-0.811,-0.075,-0.247,25.7
$IMU,28905.139,-0.183,-0.122,-0.122,0.99707,0.01171,0.01806,26.69
$IMU,28905.141,-0.305,-0.061,-0.061,0.99902,0.01611,-0.00097,26.70
$IMU,28905.143,-0.366,0.122,-0.061,0.99755,0.01025,0.01171,26.70
$IMU,28905.146,-0.183,-0.366,-0.061,0.99511,0.01367,0.00537,26.70
$MAG,28905.147,-0.811,-0.069,-0.258,25.8
$IMU,28905.148,-0.244,-0.305,0.000,0.99951,0.01464,0.00634,26.70
$IMU,28905.150,-0.183,-0.244,0.000,0.99560,0.01220,0.00830,26.70
$IMU,28905.153,-0.122,-0.488,-0.061,0.99365,0.01367,0.00683,26.70
$IMU,28905.155,-0.183,-0.488,-0.061,0.99853,0.01562,0.00244,26.70
$IMU,28905.157,-0.244,-0.488,-0.122,0.99609,0.02001,0.00683,26.70
$MAG,28905.157,-0.819,-0.073,-0.255,25.7
$IMU,28905.160,-0.244,-0.671,-0.122,0.99658,0.01953,0.01123,26.71
$IMU,28905.162,-0.244,-0.549,-0.061,0.99414,0.01611,0.00634,26.71
$IMU,28905.164,-0.244,-0.671,0.061,0.99853,0.01562,0.00439,26.71
$MAG,28905.167,-0.817,-0.076,-0.255,25.7
$IMU,28905.167,-0.305,-0.610,-0.061,0.99853,0.01757,0.00341,26.71
$IMU,28905.169,-0.244,-0.549,-0.061,0.99560,0.01904,0.00732,26.71
$IMU,28905.171,-0.366,-0.488,-0.122,0.99462,0.02099,0.00830,26.71
$IMU,28905.174,-0.366,-0.549,-0.122,0.99365,0.01757,0.00683,26.71
$IMU,28905.176,-0.366,-0.610,-0.061,0.99951,0.01757,0.00537,26.71
$MAG,28905.177,-0.805,-0.075,-0.253,26.0
$IMU,28905.178,-0.183,-0.732,-0.061,0.99755,0.01611,0.00878,26.68
$IMU,28905.181,-0.183,-0.732,-0.061,1.00000,0.01904,0.00683,26.68
$IMU,28905.183,-0.244,-0.610,-0.061,0.99804,0.01611,0.00390,26.68
$IMU,28905.185,-0.244,-0.549,0.000,1.00146,0.01660,0.00537,26.68
$MAG,28905.187,-0.805,-0.067,-0.252,25.7
$IMU,28905.188,-0.244,-0.549,0.000,0.99658,0.01806,0.00585,26.68
$IMU,28905.190,-0.244,-0.549,0.000,0.99804,0.01855,0.00830,26.68
$IMU,28905.192,-0.183,-0.610,0.061,0.99462,0.01708,0.00439,26.68
$IMU,28905.195,-0.244,-0.488,0.061,0.99609,0.01855,0.00830,26.68
$IMU,28905.197,-0.305,-0.366,0.000,0.99902,0.01953,0.00683,26.71
$MAG,28905.198,-0.817,-0.078,-0.249,25.7
$IMU,28905.200,-0.183,-0.427,0.000,0.99951,0.02099,0.00927,26.71
$IMU,28905.202,-0.305,-0.427,0.000,0.99755,0.01806,0.00878,26.71
$IMU,28905.204,-0.244,-0.366,-0.061,0.99951,0.01806,0.00585,26.71
$IMU,28905.207,-0.183,-0.427,0.000,0.99609,0.01904,0.00683,26.71
$MAG,28905.208,-0.817,-0.085,-0.256,25.7
$IMU,28905.209,-0.366,-0.366,0.061,0.99853,0.01855,0.00976,26.71
$IMU,28905.211,-0.366,-0.244,0.061,0.99707,0.01757,0.01025,26.71
$IMU,28905.214,-0.305,-0.244,0.061,0.99902,0.01806,0.01074,26.71
$IMU,28905.216,-0.244,-0.427,0.061,1.00146,0.01416,0.00781,26.72
$MAG,28905.218,-0.820,-0.084,-0.250,25.7
$IMU,28905.218,-0.244,-0.366,0.000,0.99707,0.01660,0.00683,26.72
$IMU,28905.221,-0.244,-0.244,0.000,0.99462,0.01611,0.00781,26.72
$IMU,28905.223,-0.244,-0.427,0.000,0.99511,0.01611,0.00927,26.72
$IMU,28905.225,-0.366,-0.305,0.000,0.99951,0.01464,0.00976,26.72
$BARO,28905.227,86042.77,27.09
$MAG,28905.228,-0.819,-0.076,-0.256,25.7
$IMU,28905.228,-0.305,-0.305,0.000,0.99853,0.01660,0.00878,26.72
$IMU,28905.230,-0.244,-0.366,0.000,0.99853,0.01171,0.00439,26.72
$IMU,28905.232,-0.244,-0.305,-0.061,0.99560,0.01220,0.00585,26.72
$IMU,28905.235,-0.305,-0.366,-0.061,0.99707,0.01269,0.00537,26.73
$IMU,28905.237,-0.366,-0.183,-0.061,0.99902,0.01171,0.00732,26.73
$MAG,28905.238,-0.816,-0.076,-0.249,25.8
$IMU,28905.239,-0.244,-0.305,-0.061,0.99951,0.01171,0.00683,26.73
$IMU,28905.242,-0.305,-0.305,-0.061,0.99707,0.01269,0.00537,26.73
$IMU,28905.244,-0.183,-0.305,-0.061,0.99755,0.01074,0.00488,26.73
$IMU,28905.246,-0.305,-0.366,-0.122,0.99658,0.01367,0.00878,26.73
$MAG,28905.248,-0.822,-0.073,-0.252,26.0
$IMU,28905.249,-0.366,-0.183,-0.061,1.00146,0.01367,0.00537,26.73
$IMU,28905.251,-0.366,-0.183,-0.061,1.00000,0.01318,0.00683,26.73
$IMU,28905.253,-0.366,-0.122,-0.061,0.99902,0.01367,0.00585,26.70
$IMU,28905.256,-0.183,-0.366,-0.122,0.99609,0.01367,0.00634,26.70
$MAG,28905.258,-0.819,-0.073,-0.250,26.0
$IMU,28905.258,-0.183,-0.427,-0.183,0.99609,0.01220,0.00439,26.70
$IMU,28905.261,-0.183,-0.305,-0.122,0.99658,0.01416,0.00390,26.70
$IMU,28905.263,-0.244,-0.244,-0.061,0.99853,0.01660,0.00292,26.70
$IMU,28905.265,-0.244,-0.183,-0.061,0.99804,0.01513,0.00244,26.70
$MAG,28905.268,-0.825,-0.066,-0.250,25.8
$IMU,28905.268,-0.183,-0.244,-0.183,1.00048,0.01660,0.00537,26.70
$IMU,28905.270,-0.183,-0.305,-0.122,0.99853,0.01757,0.00732,26.70
$IMU,28905.272,-0.183,-0.305,-0.122,0.99462,0.01611,0.00439,26.70
$IMU,28905.275,-0.244,-0.305,-0.122,0.99755,0.01757,0.00439,26.70
$IMU,28905.277,-0.183,-0.244,-0.061,0.99755,0.01757,0.00195,26.70
$MAG,28905.278,-0.829,-0.075,-0.253,25.7
$IMU,28905.279,-0.183,-0.122,-0.061,1.00000,0.01660,0.00390,26.70
$IMU,28905.282,-0.305,-0.061,-0.061,0.99707,0.01513,0.00634,26.70
$IMU,28905.284,-0.183,-0.183,-0.061,0.99804,0.01757,0.00488,26.70
$IMU,28905.286,-0.244,-0.061,-0.061,0.99853,0.01904,0.00439,26.70
$MAG,28905.288,-0.808,-0.076,-0.255,25.8
$IMU,28905.289,-0.244,-0.183,-0.122,0.99707,0.01660,0.00390,26.70
$IMU,28905.291,-0.305,-0.183,0.000,0.99902,0.01611,0.00439,26.66
$IMU,28905.293,-0.366,-0.061,-0.061,0.99511,0.01660,0.00341,26.66
$IMU,28905.296,-0.305,-0.183,-0.122,0.99755,0.01611,0.00244,26.66
$MAG,28905.298,-0.819,-0.082,-0.255,25.8
$IMU,28905.298,-0.244,-0.122,-0.061,0.99707,0.01611,0.00390,26.66
$IMU,28905.300,-0.122,-0.061,-0.183,0.99658,0.01660,0.00585,26.66
$IMU,28905.303,-0.122,-0.183,-0.122,0.99902,0.01904,0.00244,26.66
$IMU,28905.305,-0.183,-0.183,0.000,0.99658,0.01513,0.00244,26.66
$IMU,28905.307,-0.183,0.000,-0.122,0.99951,0.01464,0.00244,26.66
$MAG,28905.308,-0.819,-0.073,-0.256,25.7
$IMU,28905.310,-0.183,-0.183,-0.061,0.99609,0.01611,0.00585,26.71
$IMU,28905.312,-0.183,-0.183,-0.061,0.99707,0.01416,0.00292,26.71
$IMU,28905.314,-0.244,0.061,-0.061,0.99658,0.01416,0.00341,26.71
$IMU,28905.317,-0.122,0.061,-0.122,0.99707,0.01464,0.00146,26.71
$MAG,28905.318,-0.819,-0.081,-0.249,25.7
$IMU,28905.319,-0.183,-0.061,-0.061,0.99560,0.01367,0.00195,26.71
$IMU,28905.322,-0.061,-0.183,-0.061,0.99902,0.01416,0.00439,26.71
$IMU,28905.324,0.000,-0.244,-0.061,0.99609,0.01757,0.00341,26.71
$IMU,28905.326,-0.183,-0.244,-0.061,0.99707,0.01660,0.00439,26.71
$BARO,28905.329,86050.81,27.09
$MAG,28905.329,-0.820,-0.073,-0.252,25.7
$IMU,28905.329,-0.244,-0.061,0.000,0.99853,0.01562,0.00781,26.69
$IMU,28905.331,-0.305,-0.244,-0.061,0.99462,0.01660,0.00390,26.69
$IMU,28905.333,-0.305,-0.122,-0.061,0.99414,0.01660,0.00634,26.69
$IMU,28905.336,-0.183,-0.183,-0.122,0.99755,0.01708,0.00683,26.69
$IMU,28905.338,-0.183,-0.488,-0.122,0.99511,0.01513,0.00878,26.69
$MAG,28905.339,-0.817,-0.081,-0.250,25.8
$IMU,28905.340,-0.183,-0.427,0.000,1.00048,0.01708,0.00781,26.69
$IMU,28905.343,-0.244,-0.366,0.000,1.00000,0.01757,0.00732,26.69
$IMU,28905.345,-0.244,-0.427,0.000,0.99658,0.01757,0.01025,26.69
$IMU,28905.347,-0.305,-0.305,0.000,0.99804,0.01562,0.01123,26.74
$MAG,28905.349,-0.808,-0.087,-0.250,25.6
$IMU,28905.350,-0.305,-0.244,0.000,0.99755,0.01513,0.01025,26.74
$IMU,28905.352,-0.244,-0.305,0.000,1.00097,0.01562,0.00976,26.74
$IMU,28905.354,-0.427,-0.122,0.061,0.99902,0.01562,0.00830,26.74
$IMU,28905.357,-0.305,-0.061,0.000,0.99853,0.01611,0.00781,26.74
$MAG,28905.359,-0.813,-0.078,-0.256,25.7
$IMU,28905.359,-0.244,-0.061,0.000,0.99707,0.01757,0.00830,26.74
$IMU,28905.361,-0.244,-0.183,0.000,0.99658,0.01757,0.00732,26.74
$IMU,28905.364,-0.183,-0.183,0.061,0.99707,0.01660,0.00732,26.74
$IMU,28905.366,-0.244,0.061,0.000,0.99511,0.01904,0.00732,26.71
$IMU,28905.368,-0.305,0.244,0.000,0.99609,0.02246,0.00878,26.71
$MAG,28905.369,-0.817,-0.078,-0.247,25.7
$IMU,28905.371,-0.305,0.244,0.000,0.99755,0.01806,0.00781,26.71
$IMU,28905.373,-0.183,0.061,0.000,0.99658,0.01806,0.00781,26.71
$IMU,28905.375,-0.244,0.183,0.061,0.99853,0.01562,0.00781,26.71
$IMU,28905.378,-0.183,0.000,0.000,0.99658,0.01318,0.00927,26.71
$MAG,28905.379,-0.814,-0.076,-0.252,25.7
$IMU,28905.380,-0.183,0.122,0.000,1.00000,0.01660,0.01123,26.71
$IMU,28905.383,-0.244,0.244,0.000,0.99853,0.01757,0.00830,26.71
$IMU,28905.385,-0.244,0.183,0.061,0.99511,0.01660,0.00488,26.72
$IMU,28905.387,-0.183,0.000,0.061,0.99658,0.01806,0.00732,26.72
$MAG,28905.389,-0.805,-0.072,-0.256,25.7
$IMU,28905.390,-0.244,0.000,0.000,0.99755,0.02001,0.00732,26.72
$IMU,28905.392,-0.305,0.122,0.000,0.99658,0.01513,0.00781,26.72
$IMU,28905.394,-0.305,0.061,0.061,1.00000,0.01464,0.00830,26.72
$IMU,28905.397,-0.305,0.183,0.000,1.00097,0.01269,0.00781,26.72
$MAG,28905.399,-0.808,-0.067,-0.249,25.8
$IMU,28905.399,-0.244,0.183,0.000,0.99804,0.01611,0.00878,26.72
$IMU,28905.401,-0.183,0.061,0.061,0.99804,0.01269,0.00927,26.72
$IMU,28905.404,-0.061,-0.183,0.000,0.99511,0.01416,0.00781,26.68
$IMU,28905.406,-0.183,0.000,0.000,0.99902,0.01123,0.00830,26.68
$IMU,28905.408,-0.244,0.061,0.000,0.99902,0.01171,0.01025,26.68
$MAG,28905.409,-0.811,-0.072,-0.250,25.7
$IMU,28905.411,-0.183,0.000,0.000,0.99755,0.01269,0.00878,26.68
$IMU,28905.413,-0.244,0.122,0.061,0.99707,0.00927,0.00830,26.68
$IMU,28905.415,-0.305,-0.061,-0.061,0.99902,0.00830,0.01025,26.68
$IMU,28905.418,-0.305,-0.061,-0.061,1.00244,0.01074,0.01074,26.68
$MAG,28905.419,-0.819,-0.075,-0.250,26.0
$IMU,28905.420,-0.366,0.244,-0.061,0.99902,0.00781,0.01269,26.68
$IMU,28905.422,-0.427,0.061,-0.122,1.00146,0.00927,0.01220,26.68
$IMU,28905.425,-0.305,-0.061,-0.061,0.99658,0.01123,0.01074,26.68
$IMU,28905.427,-0.366,0.000,-0.061,0.99658,0.01220,0.01220,26.68
$MAG,28905.429,-0.816,-0.079,-0.247,25.8
$IMU,28905.429,-0.244,-0.244,-0.122,0.99658,0.01171,0.00976,26.68
$BARO,28905.430,86045.13,27.09
$IMU,28905.432,-0.244,-0.183,-0.122,0.99755,0.01318,0.01074,26.68
$IMU,28905.434,-0.244,-0.122,-0.122,0.99804,0.01171,0.01074,26.68
$IMU,28905.436,-0.244,-0.183,-0.183,0.99707,0.01123,0.01220,26.68
$MAG,28905.439,-0.828,-0.082,-0.250,25.8
$IMU,28905.439,-0.305,-0.122,-0.061,0.99511,0.01562,0.01025,26.68
$IMU,28905.441,-0.183,-0.183,-0.122,0.99511,0.01562,0.01123,26.69
$IMU,28905.443,-0.122,-0.366,-0.122,0.99560,0.01611,0.01269,26.69
$IMU,28905.446,-0.305,-0.061,-0.061,0.99951,0.01611,0.01123,26.69
$IMU,28905.448,-0.305,-0.122,-0.122,1.00146,0.01318,0.01220,26.69
$MAG,28905.449,-0.814,-0.079,-0.256,25.7
$IMU,28905.451,-0.366,-0.244,-0.183,0.99951,0.01660,0.01074,26.69
$IMU,28905.453,-0.244,-0.244,-0.122,1.00000,0.01562,0.01025,26.69
$IMU,28905.455,-0.244,-0.305,-0.122,1.00000,0.01513,0.00927,26.69
$IMU,28905.458,-0.244,-0.305,-0.122,0.99804,0.01416,0.00927,26.69
$MAG,28905.460,-0.816,-0.079,-0.250,26.0
$IMU,28905.460,-0.244,-0.244,-0.061,0.99609,0.01367,0.01171,26.70
$IMU,28905.462,-0.305,-0.122,-0.122,0.99658,0.01953,0.00878,26.70
$IMU,28905.465,-0.244,-0.244,-0.061,0.99902,0.01904,0.00976,26.70
$IMU,28905.467,-0.244,-0.122,-0.122,0.99853,0.01953,0.01074,26.70
$IMU,28905.469,-0.183,-0.427,-0.122,0.99511,0.01562,0.01074,26.70
$MAG,28905.470,-0.814,-0.075,-0.255,25.7
$IMU,28905.472,-0.305,-0.305,-0.122,0.99462,0.01855,0.01171,26.70
$IMU,28905.474,-0.427,-0.122,-0.183,0.99902,0.01953,0.00488,26.70
$IMU,28905.476,-0.366,-0.183,-0.122,0.99902,0.01855,0.00830,26.70
$IMU,28905.479,-0.305,-0.183,-0.122,0.99902,0.01757,0.00732,26.68
$MAG,28905.480,-0.808,-0.076,-0.253,25.7
$IMU,28905.481,-0.244,-0.244,-0.122,1.00195,0.02001,0.00830,26.68
$IMU,28905.483,-0.183,-0.366,-0.122,0.99707,0.01708,0.01025,26.68
$IMU,28905.486,-0.183,-0.183,-0.122,0.99658,0.01806,0.00781,26.68
$IMU,28905.488,-0.366,0.000,-0.061,0.99511,0.01806,0.00488,26.68
$MAG,28905.490,-0.817,-0.076,-0.256,25.7
$IMU,28905.490,-0.305,-0.061,-0.061,0.99560,0.01708,0.00390,26.68
$IMU,28905.493,-0.244,-0.122,0.000,0.99804,0.01562,0.00390,26.68
$IMU,28905.495,-0.244,-0.061,-0.061,0.99609,0.02001,0.00683,26.68
$IMU,28905.497,-0.183,-0.122,-0.061,0.99365,0.01904,0.00292,26.68
$MAG,28905.500,-0.816,-0.070,-0.246,25.7
$IMU,28905.500,-0.244,0.000,-0.061,0.99414,0.01757,0.00585,26.68
$IMU,28905.502,-0.244,0.000,0.000,0.99462,0.02392,0.00488,26.68
$IMU,28905.504,-0.244,0.122,0.000,0.99560,0.01953,0.00390,26.68
$IMU,28905.507,-0.244,0.122,0.000,0.99414,0.02001,0.00537,26.68
$IMU,28905.509,-0.183,0.122,0.000,0.99560,0.01855,0.00195,26.68
$MAG,28905.510,-0.811,-0.081,-0.253,25.7
$IMU,28905.512,-0.305,0.183,0.000,0.99609,0.01904,0.00292,26.68
$IMU,28905.514,-0.305,0.183,0.061,0.99755,0.01757,0.00439,26.68
$IMU,28905.516,-0.305,0.061,0.000,0.99755,0.01855,0.00634,26.69
$IMU,28905.519,-0.244,0.061,0.000,0.99658,0.02294,0.00439,26.69
$MAG,28905.520,-0.808,-0.079,-0.246,25.8
$IMU,28905.521,-0.244,-0.122,0.000,0.99707,0.02197,0.00097,26.69
$IMU,28905.523,-0.122,-0.305,0.061,0.99658,0.02001,0.00244,26.69
$IMU,28905.526,-0.183,-0.122,0.061,0.99511,0.01757,0.00244,26.69
$IMU,28905.528,-0.305,0.061,0.000,0.99511,0.01855,0.00048,26.69
$MAG,28905.530,-0.817,-0.081,-0.244,25.7
$IMU,28905.530,-0.305,-0.061,0.061,0.99804,0.01708,0.00537,26.69
$BARO,28905.532,86048.21,27.09
$IMU,28905.533,-0.305,-0.122,0.122,0.99658,0.01562,0.00097,26.69
$IMU,28905.535,-0.305,0.000,0.061,0.99511,0.01513,0.00000,26.72
$IMU,28905.537,-0.305,0.000,0.000,0.99902,0.01708,0.00244,26.72
$MAG,28905.540,-0.814,-0.079,-0.246,26.0
$IMU,28905.540,-0.366,0.061,0.000,0.99853,0.01855,0.00292,26.72
$IMU,28905.542,-0.305,0.061,0.061,0.99853,0.01806,-0.00097,26.72
$IMU,28905.544,-0.244,0.000,0.061,0.99902,0.01416,0.00048,26.72
$IMU,28905.547,-0.244,-0.061,0.061,1.00048,0.01757,0.00244,26.72
$IMU,28905.549,-0.244,-0.061,0.061,1.00146,0.01123,0.00244,26.72
$MAG,28905.550,-0.805,-0.073,-0.253,25.7
$IMU,28905.551,-0.366,0.061,0.000,1.00097,0.01269,0.00195,26.72
$IMU,28905.554,-0.427,0.061,0.061,1.00146,0.01367,0.00292,26.68
$IMU,28905.556,-0.305,0.061,0.061,1.00000,0.01464,0.00097,26.68
$IMU,28905.558,-0.366,0.000,0.061,0.99707,0.01318,-0.00097,26.68
$MAG,28905.560,-0.814,-0.073,-0.250,25.6
$IMU,28905.561,-0.366,-0.183,0.000,0.99560,0.01269,-0.00244,26.68
$IMU,28905.563,-0.366,-0.061,0.061,0.99804,0.01611,0.00097,26.68
$IMU,28905.565,-0.488,0.061,-0.061,0.99804,0.01562,0.00195,26.68
$IMU,28905.568,-0.427,0.000,-0.061,0.99707,0.01123,0.00195,26.68
$VBAT,28905.569,4.129
$MAG,28905.570,-0.813,-0.084,-0.255,25.7
$IMU,28905.570,-0.366,-0.061,0.061,0.99804,0.01171,0.00195,26.68
$IMU,28905.573,-0.366,-0.061,0.000,0.99853,0.00927,0.00000,26.75
$IMU,28905.575,-0.305,-0.122,-0.061,1.00195,0.01269,0.00048,26.75
$IMU,28905.577,-0.488,0.061,0.000,1.00000,0.01074,0.00097,26.75
$MAG,28905.580,-0.822,-0.072,-0.244,25.7
$IMU,28905.580,-0.488,0.061,-0.061,0.99755,0.00781,0.00195,26.75
$IMU,28905.582,-0.366,0.000,-0.122,1.00048,0.01123,0.00048,26.75
$IMU,28905.584,-0.305,-0.122,-0.061,0.99853,0.00732,0.00195,26.75
$IMU,28905.587,-0.244,-0.061,-0.061,0.99951,0.01123,0.00292,26.75
$IMU,28905.589,-0.244,-0.061,-0.122,0.99609,0.00927,0.00000,26.75
$MAG,28905.591,-0.816,-0.081,-0.252,25.7
$IMU,28905.591,-0.366,0.122,-0.061,0.99609,0.00781,0.00195,26.76
$IMU,28905.594,-0.244,0.183,-0.061,0.99853,0.01025,0.00195,26.76
$IMU,28905.596,-0.305,0.122,-0.122,0.99755,0.00878,0.00439,26.76
$IMU,28905.598,-0.305,0.000,-0.183,1.00000,0.01025,0.00341,26.76
$MAG,28905.601,-0.810,-0.079,-0.241,25.7
$IMU,28905.601,-0.305,0.061,-0.122,0.99658,0.00927,0.00195,26.76
$IMU,28905.603,-0.305,0.122,-0.183,0.99707,0.01220,0.00292,26.76
$IMU,28905.605,-0.244,0.000,-0.183,0.99560,0.00878,0.00341,26.76
$IMU,28905.608,-0.305,0.061,-0.183,0.99414,0.00976,0.00390,26.76
$IMU,28905.610,-0.244,-0.061,-0.183,0.99511,0.01318,0.00292,26.73
$MAG,28905.611,-0.820,-0.075,-0.247,25.7
$IMU,28905.612,-0.183,-0.122,-0.244,0.99804,0.01171,0.00537,26.73
$IMU,28905.615,-0.305,0.061,-0.244,0.99658,0.01464,0.00683,26.73
$IMU,28905.617,-0.244,-0.183,-0.183,0.99902,0.01855,0.00292,26.73
$IMU,28905.619,-0.366,0.061,-0.183,0.99707,0.01611,0.00439,26.73
$MAG,28905.621,-0.807,-0.076,-0.253,25.6
$IMU,28905.622,-0.305,-0.061,-0.183,0.99755,0.01123,0.00439,26.73
$IMU,28905.624,-0.122,-0.366,-0.183,0.99707,0.01513,0.00830,26.73
$IMU,28905.626,-0.244,-0.244,-0.183,0.99951,0.01708,0.00488,26.73
$IMU,28905.629,-0.305,-0.122,-0.244,0.99902,0.01953,0.00341,26.75
$MAG,28905.631,-0.811,-0.073,-0.252,25.7
$IMU,28905.631,-0.244,-0.183,-0.183,0.99804,0.01806,0.00585,26.75
$BARO,28905.633,86042.72,27.09
$IMU,28905.634,-0.366,0.061,-0.183,0.99853,0.01708,0.00585,26.75
$IMU,28905.636,-0.305,0.000,-0.244,1.00097,0.01660,0.00683,26.75
$IMU,28905.638,-0.244,-0.061,-0.122,0.99951,0.01269,0.00781,26.75
$MAG,28905.641,-0.808,-0.069,-0.244,26.0
$IMU,28905.641,-0.122,-0.061,-0.061,0.99902,0.02001,0.00634,26.75
$IMU,28905.643,-0.183,0.061,-0.122,0.99707,0.01757,0.00537,26.75
$IMU,28905.645,-0.244,0.122,-0.183,0.99658,0.01904,0.00585,26.75
$IMU,28905.648,-0.244,0.183,-0.061,0.99804,0.01806,0.00634,26.72
$IMU,28905.650,-0.122,0.061,-0.061,0.99511,0.02050,0.00634,26.72
$MAG,28905.651,-0.817,-0.075,-0.250,25.7
$IMU,28905.652,-0.183,0.061,-0.122,0.99902,0.02246,0.00390,26.72
$IMU,28905.655,-0.183,0.244,-0.061,0.99511,0.02246,0.00781,26.72
$IMU,28905.657,-0.183,0.305,-0.061,0.99560,0.02099,0.00830,26.72
$IMU,28905.659,-0.183,0.183,0.000,0.99462,0.02246,0.00732,26.72
$MAG,28905.661,-0.822,-0.079,-0.250,25.7
$IMU,28905.662,-0.061,0.122,0.000,0.99609,0.02099,0.00830,26.72
$IMU,28905.664,-0.061,0.183,-0.061,0.99658,0.02148,0.00781,26.72
$IMU,28905.666,-0.061,0.000,-0.061,0.99951,0.02392,0.00488,26.68
$IMU,28905.669,-0.122,0.183,0.000,1.00000,0.02246,0.00878,26.68
$MAG,28905.671,-0.807,-0.075,-0.255,25.7
$IMU,28905.671,-0.061,0.244,0.000,0.99951,0.01953,0.00878,26.68
$IMU,28905.673,-0.183,0.244,0.000,0.99853,0.02490,0.00830,26.68
$IMU,28905.676,-0.122,0.244,0.061,0.99853,0.02001,0.01074,26.68
$IMU,28905.678,-0.061,0.122,0.061,0.99707,0.02050,0.00830,26.68
$IMU,28905.680,-0.122,0.122,0.061,0.99707,0.01904,0.00927,26.68
$MAG,28905.681,-0.813,-0.081,-0.249,25.7
$IMU,28905.683,-0.122,0.183,0.000,0.99804,0.01513,0.00927,26.68
$IMU,28905.685,-0.244,0.366,0.000,0.99609,0.01660,0.00878,26.71
$IMU,28905.687,-0.305,0.305,0.122,0.99560,0.01416,0.00830,26.71
$IMU,28905.690,-0.244,0.122,0.061,0.99707,0.01367,0.00878,26.71
$MAG,28905.691,-0.810,-0.081,-0.247,25.7
$IMU,28905.692,-0.244,0.183,0.061,0.99462,0.01611,0.00634,26.71
$IMU,28905.694,-0.366,0.244,0.000,0.99511,0.01464,0.00683,26.71
$IMU,28905.697,-0.305,0.122,0.061,1.00048,0.01660,0.01025,26.71
$IMU,28905.699,-0.366,0.122,0.061,1.00146,0.01464,0.00781,26.71
$MAG,28905.701,-0.808,-0.078,-0.253,25.6
$IMU,28905.702,-0.366,0.183,0.061,1.00097,0.01269,0.00976,26.71
$IMU,28905.704,-0.305,0.061,0.061,1.00097,0.01025,0.00878,26.72
$IMU,28905.706,-0.305,-0.061,0.000,0.99755,0.00976,0.00781,26.72
$IMU,28905.709,-0.427,0.061,-0.061,1.00097,0.01123,0.01123,26.72
$IMU,28905.711,-0.366,0.122,-0.061,0.99951,0.01123,0.01074,26.72
$MAG,28905.712,-0.817,-0.079,-0.252,25.8
$IMU,28905.713,-0.305,-0.061,0.000,0.99951,0.01269,0.00781,26.72
$IMU,28905.716,-0.366,0.122,0.000,0.99804,0.01123,0.01025,26.72
$IMU,28905.718,-0.305,0.122,0.000,0.99609,0.00927,0.00878,26.72
$IMU,28905.720,-0.183,0.061,0.000,0.99707,0.01171,0.01171,26.72
$MAG,28905.722,-0.814,-0.072,-0.244,25.7
$IMU,28905.723,-0.183,0.122,0.000,0.99462,0.00830,0.00781,26.70
$IMU,28905.725,-0.305,0.305,0.000,0.99267,0.00537,0.01025,26.70
$IMU,28905.727,-0.366,0.427,0.000,0.99169,0.01318,0.00976,26.70
$IMU,28905.730,-0.244,0.183,-0.061,0.99511,0.01367,0.00781,26.70
$MAG,28905.732,-0.820,-0.073,-0.247,25.6
$IMU,28905.732,-0.183,0.122,-0.061,1.00000,0.01416,0.00976,26.70
$IMU,28905.734,-0.183,0.122,-0.061,0.99609,0.01367,0.00927,26.70
$BARO,28905.735,86047.94,27.09
$IMU,28905.737,-0.183,0.000,-0.122,0.99707,0.01269,0.01025,26.70
$IMU,28905.739,-0.183,-0.061,-0.183,1.00000,0.01660,0.00976,26.70
$IMU,28905.741,-0.183,0.061,-0.061,1.00000,0.01416,0.00537,26.72
$MAG,28905.742,-0.816,-0.081,-0.252,25.6
$IMU,28905.744,-0.183,-0.183,-0.061,0.99755,0.02001,0.00976,26.72
$IMU,28905.746,-0.122,-0.244,-0.061,0.99804,0.01708,0.00683,26.72
$IMU,28905.748,-0.122,-0.122,-0.061,0.99658,0.02050,0.00585,26.72
$IMU,28905.751,-0.244,-0.244,-0.061,0.99804,0.01562,0.00732,26.72
$MAG,28905.752,-0.814,-0.067,-0.253,25.6
$IMU,28905.753,-0.122,-0.366,-0.061,0.99658,0.02001,0.00390,26.72
$IMU,28905.755,-0.061,-0.244,-0.061,1.00097,0.01806,0.00439,26.72
$IMU,28905.758,0.000,-0.244,-0.122,1.00097,0.01660,0.00683,26.72
$IMU,28905.760,-0.061,-0.244,-0.183,0.99707,0.01904,0.00537,26.72
$MAG,28905.762,-0.819,-0.081,-0.249,25.6
$IMU,28905.763,-0.122,-0.183,-0.122,0.99560,0.01953,0.00585,26.72
$IMU,28905.765,-0.244,-0.122,-0.061,0.99755,0.02050,0.00585,26.72
$IMU,28905.767,-0.183,-0.366,-0.061,0.99755,0.02050,0.00537,26.72
$IMU,28905.770,-0.244,-0.305,-0.061,0.99804,0.01953,0.00830,26.72
$MAG,28905.772,-0.811,-0.075,-0.252,25.8
$IMU,28905.772,-0.244,-0.244,-0.061,1.00000,0.02050,0.00976,26.72
$IMU,28905.774,-0.305,-0.366,-0.061,0.99755,0.02001,0.00683,26.72
$IMU,28905.777,-0.305,-0.183,-0.061,0.99462,0.02099,0.00732,26.72
$IMU,28905.779,-0.366,-0.305,-0.061,0.99755,0.02050,0.00585,26.72
$IMU,28905.781,-0.366,-0.366,-0.061,0.99609,0.01904,0.00537,26.72
$MAG,28905.782,-0.811,-0.079,-0.250,25.7
$IMU,28905.784,-0.366,-0.305,-0.061,0.99755,0.01806,0.00439,26.72
$IMU,28905.786,-0.366,-0.366,-0.061,0.99609,0.01562,0.00732,26.72
$IMU,28905.788,-0.366,-0.488,0.000,0.99902,0.01611,0.00927,26.72
$IMU,28905.791,-0.366,-0.305,0.000,0.99658,0.01757,0.00683,26.72
$MAG,28905.792,-0.811,-0.081,-0.250,25.7
$IMU,28905.793,-0.305,-0.366,0.000,0.99658,0.01660,0.00781,26.72
$IMU,28905.795,-0.366,-0.244,0.000,0.99365,0.01416,0.00781,26.72
$IMU,28905.798,-0.366,-0.305,0.000,0.99609,0.01513,0.00878,26.75
$IMU,28905.800,-0.366,-0.366,0.000,0.99902,0.01660,0.00878,26.75
$MAG,28905.802,-0.814,-0.082,-0.253,25.7
$IMU,28905.802,-0.366,-0.244,0.000,1.00195,0.01708,0.00830,26.75
$IMU,28905.805,-0.366,-0.244,0.061,1.00097,0.01416,0.00488,26.75
$IMU,28905.807,-0.244,-0.305,0.061,1.00195,0.01269,0.00683,26.75
$IMU,28905.809,-0.183,-0.305,0.061,1.00048,0.01025,0.01074,26.75
$MAG,28905.812,-0.819,-0.082,-0.246,25.7
$IMU,28905.812,-0.183,-0.183,0.000,0.99951,0.01269,0.00927,26.75
$IMU,28905.814,-0.183,-0.183,0.061,0.99804,0.01123,0.01074,26.75
$IMU,28905.816,-0.244,-0.061,0.000,0.99853,0.01562,0.00732,26.71
$IMU,28905.819,-0.305,-0.061,0.000,0.99707,0.01367,0.00878,26.71
$IMU,28905.821,-0.183,-0.061,0.122,0.99707,0.01513,0.00976,26.71
$MAG,28905.822,-0.813,-0.087,-0.256,25.7
$IMU,28905.824,-0.122,-0.183,0.061,0.99755,0.01660,0.01171,26.71
$IMU,28905.826,-0.122,-0.122,0.000,0.99707,0.01464,0.00927,26.71
$IMU,28905.828,-0.244,-0.061,0.122,0.99707,0.01660,0.01025,26.71
$IMU,28905.831,-0.244,0.000,0.000,0.99755,0.01611,0.01074,26.71
$MAG,28905.832,-0.814,-0.072,-0.252,25.6
$IMU,28905.833,-0.244,-0.183,0.061,0.99560,0.01806,0.00683,26.71
$IMU,28905.835,-0.366,-0.061,0.000,0.99560,0.01562,0.00878,26.71
$BARO,28905.836,86052.96,27.09
$IMU,28905.838,-0.305,-0.244,0.000,0.99462,0.01562,0.00585,26.71
$IMU,28905.840,-0.366,-0.122,0.000,0.99902,0.01513,0.00781,26.71
$IMU,28905.842,-0.427,-0.122,0.000,0.99951,0.01464,0.00683,26.71
$MAG,28905.843,-0.816,-0.082,-0.247,25.7
$IMU,28905.845,-0.427,-0.183,0.000,0.99560,0.01660,0.01074,26.71
$IMU,28905.847,-0.305,-0.488,0.000,1.00244,0.01855,0.00683,26.71
$IMU,28905.849,-0.305,-0.488,0.061,0.99853,0.01855,0.00732,26.71
$IMU,28905.852,-0.366,-0.549,0.000,0.99951,0.01464,0.00585,26.71
$MAG,28905.853,-0.808,-0.073,-0.246,25.7
$IMU,28905.854,-0.427,-0.549,0.000,1.00146,0.01074,0.00244,26.73
$IMU,28905.856,-0.427,-0.610,0.000,1.00097,0.01074,0.00244,26.73
$IMU,28905.859,-0.427,-0.549,0.000,0.99853,0.01171,0.00048,26.73
$IMU,28905.861,-0.427,-0.549,0.000,1.00097,0.01318,0.00048,26.73
$MAG,28905.863,-0.817,-0.078,-0.247,25.7
$IMU,28905.863,-0.427,-0.610,0.000,1.00000,0.01171,-0.00244,26.73
$IMU,28905.866,-0.366,-0.610,-0.061,0.99658,0.00976,-0.00048,26.73
$IMU,28905.868,-0.427,-0.671,-0.183,0.99658,0.01171,-0.00195,26.73
$IMU,28905.870,-0.366,-0.671,-0.061,0.99462,0.01171,-0.00097,26.73
$MAG,28905.873,-0.819,-0.073,-0.250,25.8
$IMU,28905.873,-0.488,-0.427,-0.122,0.99658,0.01074,-0.00488,26.76
$IMU,28905.875,-0.427,-0.488,-0.122,0.99707,0.01074,-0.00292,26.76
$IMU,28905.877,-0.305,-0.549,-0.122,0.99804,0.01269,-0.00292,26.76
$IMU,28905.880,-0.305,-0.488,-0.061,0.99902,0.00927,-0.00537,26.76
$IMU,28905.882,-0.305,-0.427,-0.061,0.99414,0.01464,-0.00341,26.76
$MAG,28905.883,-0.813,-0.081,-0.246,26.0
$HUM,28905.885,46.3,27.5
$IMU,28905.885,-0.427,-0.244,-0.061,0.99658,0.01220,-0.00292,26.76
$IMU,28905.887,-0.305,-0.305,0.000,0.99414,0.01513,-0.00146,26.76
$IMU,28905.889,-0.183,-0.305,-0.061,0.99462,0.01416,-0.00292,26.76
$IMU,28905.892,-0.183,-0.427,-0.061,0.98876,0.01611,-0.00244,26.70
$MAG,28905.893,-0.816,-0.079,-0.252,25.7
$IMU,28905.894,-0.244,-0.427,-0.061,0.99121,0.01708,0.00048,26.70
$IMU,28905.896,-0.244,-0.549,-0.061,0.99414,0.02050,-0.00341,26.70
$IMU,28905.899,-0.305,-0.549,-0.061,0.99804,0.01806,-0.00439,26.70
$IMU,28905.901,-0.183,-0.549,0.000,1.00097,0.01660,-0.00195,26.70
$MAG,28905.903,-0.807,-0.073,-0.249,26.0
$IMU,28905.903,-0.122,-0.427,0.000,1.00292,0.01660,-0.00537,26.70
$IMU,28905.906,-0.244,-0.244,0.000,1.00146,0.01806,-0.00292,26.70
$IMU,28905.908,-0.183,-0.183,-0.061,1.00000,0.01757,-0.00097,26.70
$IMU,28905.910,-0.122,-0.305,0.000,0.99462,0.01904,-0.00146,26.75
$MAG,28905.913,-0.817,-0.076,-0.241,25.7
$IMU,28905.913,-0.183,-0.244,0.000,0.99853,0.01855,-0.00390,26.75
$IMU,28905.915,-0.244,-0.183,-0.061,0.99560,0.01953,-0.00292,26.75
$IMU,28905.917,-0.305,-0.122,-0.061,0.99902,0.01757,-0.00195,26.75
$IMU,28905.920,-0.366,0.000,0.000,0.99707,0.01318,-0.00097,26.75
$IMU,28905.922,-0.305,0.000,0.000,0.99853,0.01513,0.00048,26.75
$MAG,28905.923,-0.816,-0.070,-0.249,26.0
$IMU,28905.924,-0.366,0.000,0.000,0.99707,0.01660,-0.00048,26.75
$IMU,28905.927,-0.366,-0.122,-0.061,0.99902,0.01953,-0.00048,26.75
$IMU,28905.929,-0.366,-0.061,0.000,1.00097,0.01953,-0.00146,26.75
$IMU,28905.931,-0.366,0.000,0.000,0.99804,0.01904,-0.00244,26.75
$MAG,28905.933,-0.814,-0.085,-0.250,25.7
$IMU,28905.934,-0.305,-0.305,0.000,1.00000,0.01757,0.00048,26.75
$IMU,28905.936,-0.366,0.061,-0.122,1.00097,0.01757,0.00244,26.75
$BARO,28905.938,86055.98,27.10
$IMU,28905.938,-0.305,0.183,-0.061,1.00830,0.01855,0.00585,26.75
$IMU,28905.941,-0.305,0.244,-0.061,0.97216,0.01367,0.00878,26.75
$MAG,28905.943,-0.808,-0.075,-0.250,26.1
$IMU,28905.943,0.122,-1.281,-0.061,0.99365,0.00927,0.00341,26.75
$IMU,28905.945,-0.061,-0.793,-0.061,1.00830,0.02148,-0.01025,26.75
$IMU,28905.948,-0.671,0.244,-0.122,0.99755,0.01318,0.00732,26.72
$IMU,28905.950,-0.366,0.244,-0.061,0.99707,0.01074,-0.00097,26.72
$MAG,28905.953,-0.811,-0.072,-0.250,25.7
$IMU,28905.953,-0.122,0.000,0.000,1.00097,0.01269,0.00390,26.72
$IMU,28905.955,-0.183,-0.061,-0.061,0.99853,0.01318,0.00488,26.72
$IMU,28905.957,-0.244,0.000,-0.061,0.99707,0.01611,0.00390,26.72
$IMU,28905.960,-0.244,0.122,-0.061,1.00146,0.01611,0.00488,26.72
$IMU,28905.962,-0.122,0.366,-0.061,0.99462,0.01757,0.00195,26.72
$MAG,28905.963,-0.816,-0.079,-0.250,25.7
$IMU,28905.964,-0.061,-0.183,0.000,0.99169,0.01123,0.00830,26.72
$IMU,28905.967,0.061,-0.549,-0.061,1.00439,0.01806,-0.00683,26.69
$IMU,28905.969,-0.305,0.366,-0.122,1.00195,0.01757,0.00000,26.69
$IMU,28905.971,-0.427,0.610,-0.061,0.99951,0.01464,0.00097,26.69
$MAG,28905.974,-0.808,-0.079,-0.241,25.7
$IMU,28905.974,-0.122,0.244,-0.061,1.00195,0.01171,-0.00585,26.69
$IMU,28905.976,-0.305,0.183,0.000,0.99902,0.01757,-0.00537,26.69
$IMU,28905.978,-0.488,0.366,0.000,0.99023,0.01123,-0.00048,26.69
$IMU,28905.981,-0.427,0.061,-0.061,0.99658,0.00830,0.00000,26.69
$IMU,28905.983,-0.427,-0.122,-0.122,0.99414,0.01074,-0.00097,26.69
$MAG,28905.984,-0.813,-0.076,-0.253,25.7
$IMU,28905.985,-0.427,-0.244,-0.122,0.99755,0.01855,-0.00439,26.69
$IMU,28905.988,-0.488,-0.122,-0.061,1.00195,0.01562,-0.00488,26.69
$IMU,28905.990,-0.366,-0.488,-0.061,1.00097,0.01464,-0.00146,26.69
$IMU,28905.992,-0.366,-0.488,-0.122,0.99414,0.01562,-0.00488,26.69
$MAG,28905.994,-0.811,-0.069,-0.249,25.7
$IMU,28905.995,-0.366,-0.549,-0.061,0.99560,0.01953,-0.00146,26.69
$IMU,28905.997,-0.427,-0.610,-0.061,1.00585,0.01757,-0.00634,26.69
$IMU,28905.999,-0.549,-0.183,-0.061,0.99658,0.02050,-0.00048,26.69
$IMU,28906.002,-0.427,-0.244,0.000,0.99853,0.01757,-0.00146,26.69
$MAG,28906.004,-0.816,-0.076,-0.247,25.8
$IMU,28906.004,-0.488,-0.122,-0.061,0.99414,0.01513,-0.00195,26.75
$IMU,28906.006,-0.366,-0.549,-0.122,0.99853,0.02197,0.00195,26.75
$IMU,28906.009,-0.427,-0.488,-0.061,0.99707,0.01953,0.00097,26.75
$IMU,28906.011,-0.488,-0.305,-0.122,0.99658,0.02099,-0.00048,26.75
$IMU,28906.014,-0.366,-0.427,-0.061,0.99511,0.01953,0.00000,26.75
$MAG,28906.014,-0.807,-0.078,-0.247,25.7
$IMU,28906.016,-0.305,-0.549,-0.061,0.99414,0.02246,0.00439,26.75
$IMU,28906.018,-0.305,-0.427,0.061,0.99365,0.02001,0.00341,26.75
$IMU,28906.021,-0.244,-0.244,0.000,0.99316,0.02343,0.00195,26.75
$IMU,28906.023,-0.366,-0.427,0.000,0.99267,0.02197,0.00146,26.70
$MAG,28906.024,-0.811,-0.070,-0.255,25.8
$IMU,28906.025,-0.305,-0.305,0.061,0.99414,0.02294,0.00292,26.70
$IMU,28906.028,-0.244,-0.122,0.122,0.99365,0.02050,0.00488,26.70
$IMU,28906.030,-0.244,-0.183,0.122,0.99316,0.02490,0.00341,26.70
$IMU,28906.032,-0.183,-0.122,0.122,0.99511,0.02490,0.00878,26.70
$MAG,28906.034,-0.817,-0.073,-0.249,25.6
$IMU,28906.035,-0.183,-0.122,0.183,0.99707,0.02441,0.00634,26.70
$IMU,28906.037,-0.305,-0.183,0.183,1.00048,0.02441,0.00634,26.70
$BARO,28906.039,86052.96,27.10
$IMU,28906.039,-0.305,-0.183,0.183,0.99755,0.02490,0.00732,26.70
$IMU,28906.042,-0.244,-0.122,0.122,0.99853,0.02539,0.01171,26.74
$MAG,28906.044,-0.816,-0.078,-0.247,25.7
$IMU,28906.044,-0.305,-0.061,0.122,1.00048,0.02001,0.00976,26.74
$IMU,28906.046,-0.244,-0.122,0.305,1.00341,0.02050,0.01074,26.74
$IMU,28906.049,-0.244,0.000,0.183,1.00341,0.01464,0.01464,26.74
$IMU,28906.051,-0.366,0.488,0.183,0.99804,0.01953,0.01025,26.74
$IMU,28906.053,-0.427,0.244,0.183,0.99609,0.01318,0.01953,26.74
$MAG,28906.054,-0.808,-0.082,-0.244,25.7
$IMU,28906.056,-0.122,-0.244,0.244,0.99316,0.01513,0.01660,26.74
$IMU,28906.058,-0.305,-0.061,0.244,1.00244,0.01757,0.01416,26.74
$IMU,28906.060,-0.366,0.122,0.183,1.00146,0.01513,0.01708,26.75
$IMU,28906.063,-0.427,0.488,0.183,1.00000,0.01074,0.01806,26.75
$MAG,28906.064,-0.810,-0.079,-0.250,25.7
$IMU,28906.065,-0.366,0.488,0.244,1.00292,0.01123,0.02294,26.75
$IMU,28906.067,-0.427,0.549,0.183,1.00000,0.01562,0.02099,26.75
$IMU,28906.070,-0.427,0.610,0.122,0.99609,0.01269,0.02099,26.75
$IMU,28906.072,-0.305,0.305,0.183,0.99853,0.01171,0.01562,26.75
$MAG,28906.074,-0.819,-0.067,-0.255,25.6
$IMU,28906.075,-0.183,0.122,0.122,0.99951,0.01513,0.01708,26.75
$IMU,28906.077,-0.244,0.183,0.183,0.99755,0.01123,0.01953,26.75
$IMU,28906.079,-0.305,0.183,0.183,0.99609,0.01220,0.02197,26.69
$IMU,28906.082,-0.305,0.061,0.122,0.99755,0.01220,0.01855,26.69
$MAG,28906.084,-0.810,-0.076,-0.246,25.7
$IMU,28906.084,-0.305,0.244,0.122,1.00000,0.01074,0.01953,26.69
$IMU,28906.086,-0.183,0.061,0.061,0.99804,0.01123,0.01660,26.69
$IMU,28906.089,-0.183,0.000,0.122,0.99609,0.01074,0.01708,26.69
$IMU,28906.091,-0.183,0.244,0.183,0.99316,0.01025,0.01757,26.69
$IMU,28906.093,-0.305,0.305,0.122,0.99560,0.01074,0.01611,26.69
$MAG,28906.094,-0.817,-0.075,-0.258,25.8
$IMU,28906.096,-0.122,0.061,0.122,0.99902,0.00878,0.01269,26.69
$IMU,28906.098,0.000,-0.122,0.122,0.99853,0.00830,0.01269,26.72
$IMU,28906.100,-0.122,-0.122,0.000,0.99707,0.01074,0.01416,26.72
$IMU,28906.103,0.000,-0.244,0.183,0.99755,0.00830,0.01464,26.72
$IMU,28906.105,0.000,-0.061,0.122,0.99853,0.00781,0.01074,26.72
$MAG,28906.105,-0.816,-0.070,-0.244,25.8
$IMU,28906.107,0.000,-0.061,0.061,0.99707,0.00634,0.00927,26.72
$IMU,28906.110,-0.122,-0.244,0.122,1.00195,0.01171,0.00878,26.72
$IMU,28906.112,-0.244,0.122,0.061,1.00000,0.00878,0.00830,26.72
$IMU,28906.114,-0.122,-0.122,0.061,0.99609,0.00878,0.00927,26.72
$MAG,28906.115,-0.807,-0.073,-0.255,25.7
$IMU,28906.117,-0.366,-0.061,0.000,0.99462,0.00830,0.00830,26.73
$IMU,28906.119,-0.366,-0.183,0.000,0.99462,0.00732,0.00781,26.73
$IMU,28906.121,-0.305,-0.244,0.000,0.99267,0.01171,0.00732,26.73
$IMU,28906.124,-0.427,-0.305,0.000,0.99707,0.00927,0.00976,26.73
$MAG,28906.125,-0.804,-0.078,-0.247,25.7
$IMU,28906.126,-0.427,-0.549,0.000,0.99755,0.00537,0.00830,26.73
$IMU,28906.128,-0.549,-0.488,-0.122,0.99707,0.01123,0.00732,26.73
$IMU,28906.131,-0.549,-0.793,-0.061,0.99658,0.00830,0.00927,26.73
$IMU,28906.133,-0.732,-0.610,-0.061,1.00097,0.00390,0.01025,26.73
$MAG,28906.135,-0.820,-0.069,-0.241,25.6
$IMU,28906.136,-0.854,-0.793,-0.244,0.99853,0.00585,0.00878,26.75
$IMU,28906.138,-0.793,-0.854,-0.183,1.00048,0.00537,0.00634,26.75
$BARO,28906.140,86048.74,27.10
$IMU,28906.140,-0.671,-0.671,-0.244,1.00244,0.01025,0.01220,26.75
$IMU,28906.143,-0.610,-0.976,-0.183,0.99511,0.01318,0.01074,26.75
$MAG,28906.145,-0.820,-0.073,-0.241,25.7
$IMU,28906.145,-0.793,-0.976,-0.244,0.99511,0.01220,0.00781,26.75
$IMU,28906.147,-0.732,-1.159,-0.183,0.99609,0.01464,0.00927,26.75
$IMU,28906.150,-0.671,-0.976,-0.183,0.99755,0.01708,0.00537,26.75
$IMU,28906.152,-0.610,-0.793,-0.183,0.99853,0.02099,0.00732,26.75
$IMU,28906.154,-0.549,-0.915,-0.244,0.99414,0.02050,0.00976,26.78
$MAG,28906.155,-0.805,-0.075,-0.253,25.7
$IMU,28906.157,-0.549,-0.854,-0.183,0.99414,0.02099,0.01171,26.78
$IMU,28906.159,-0.549,-0.732,-0.183,0.99511,0.01855,0.00878,26.78
$IMU,28906.161,-0.488,-0.915,-0.244,0.99755,0.01806,0.01220,26.78
$IMU,28906.164,-0.427,-0.671,-0.183,1.00048,0.01855,0.00878,26.78
$MAG,28906.165,-0.816,-0.066,-0.244,25.7
$IMU,28906.166,-0.427,-0.427,-0.122,0.99804,0.01660,0.01025,26.78
$IMU,28906.168,-0.305,-0.854,-0.122,0.99804,0.01611,0.01367,26.78
$IMU,28906.171,-0.366,-0.488,-0.122,0.99462,0.01660,0.01074,26.78
$IMU,28906.173,-0.488,-0.549,-0.122,0.99560,0.01464,0.01220,26.72
$MAG,28906.175,-0.810,-0.076,-0.255,25.6
$IMU,28906.175,-0.427,-0.671,-0.122,0.99365,0.01464,0.01025,26.72
$IMU,28906.178,-0.305,-0.671,0.000,0.99267,0.01660,0.01074,26.72
$IMU,28906.180,-0.366,-0.610,-0.122,0.99414,0.01757,0.01123,26.72
$IMU,28906.182,-0.488,-0.671,-0.183,0.99609,0.01464,0.01025,26.72
$MAG,28906.185,-0.814,-0.069,-0.247,25.7
$IMU,28906.185,-0.488,-0.366,-0.061,0.99804,0.01708,0.01123,26.72
$IMU,28906.187,-0.366,-0.488,0.000,0.99853,0.01513,0.01171,26.72
$IMU,28906.189,-0.244,-0.610,-0.061,0.99951,0.01806,0.01269,26.72
$IMU,28906.192,-0.244,-0.549,-0.061,1.00390,0.02050,0.01318,26.76
$IMU,28906.194,-0.305,-0.488,-0.061,1.00000,0.01611,0.01367,26.76
$MAG,28906.195,-0.816,-0.073,-0.250,25.7
$IMU,28906.196,-0.305,-0.366,-0.061,0.99853,0.01562,0.01367,26.76
$IMU,28906.199,-0.366,-0.061,0.000,0.99755,0.01708,0.01367,26.76
$IMU,28906.201,-0.244,0.061,0.000,0.99462,0.01562,0.01171,26.76
$IMU,28906.204,-0.061,0.000,-0.061,0.99609,0.01806,0.01269,26.76
$MAG,28906.205,-0.814,-0.072,-0.255,25.7
$IMU,28906.206,-0.122,-0.061,-0.061,0.99316,0.01953,0.01220,26.76
$IMU,28906.208,0.000,-0.183,0.061,0.99414,0.01660,0.00976,26.76
$IMU,28906.211,0.000,0.061,0.061,0.99853,0.01416,0.00878,26.73
$IMU,28906.213,0.122,0.122,0.000,0.99804,0.02148,0.01367,26.73
$MAG,28906.215,-0.819,-0.079,-0.252,25.6
$IMU,28906.215,-0.061,0.122,0.000,0.99414,0.01757,-0.00146,26.73
$IMU,28906.218,0.000,-0.305,0.000,0.99609,0.01513,0.00976,26.73
$IMU,28906.220,0.122,-0.366,-0.061,1.00488,0.01953,0.00146,26.73
$IMU,28906.222,-0.061,-0.122,-0.061,0.99804,0.01611,0.00537,26.73
$IMU,28906.225,-0.183,-0.183,0.000,0.99511,0.01318,0.00439,26.73
$MAG,28906.226,-0.813,-0.075,-0.250,25.7
$IMU,28906.227,-0.122,-0.183,0.000,1.00000,0.01562,0.00097,26.73
$IMU,28906.229,-0.122,-0.122,-0.061,0.99804,0.01513,0.00195,26.72
$IMU,28906.232,-0.061,-0.244,0.000,1.00146,0.01513,-0.00195,26.72
$IMU,28906.234,-0.122,-0.122,0.000,1.00195,0.01416,-0.00195,26.72
$MAG,28906.236,-0.810,-0.069,-0.249,25.7
$IMU,28906.236,-0.061,-0.122,-0.061,1.00000,0.01269,-0.00146,26.72
$IMU,28906.239,-0.305,0.061,-0.061,1.00048,0.01220,-0.00390,26.72
$IMU,28906.241,-0.183,-0.061,-0.061,1.00097,0.01562,-0.00439,26.72
$BARO,28906.242,86041.92,27.10
$IMU,28906.243,-0.061,-0.183,-0.061,1.00390,0.01660,-0.00439,26.72
$MAG,28906.246,-0.819,-0.069,-0.250,25.7
$IMU,28906.246,0.000,-0.305,-0.122,1.00390,0.01025,-0.00390,26.72
$IMU,28906.248,-0.122,-0.061,-0.061,1.00292,0.01269,-0.00292,26.70
$IMU,28906.250,-0.122,0.000,-0.061,1.00146,0.01416,-0.00585,26.70
$IMU,28906.253,-0.183,0.122,-0.122,1.00000,0.01269,-0.00292,26.70
$IMU,28906.255,-0.122,0.061,-0.061,1.00097,0.01025,-0.00927,26.70
$MAG,28906.256,-0.811,-0.079,-0.259,25.7
$IMU,28906.257,-0.122,0.122,0.000,0.99658,0.01416,-0.00781,26.70
$IMU,28906.260,-0.183,0.122,-0.061,0.99560,0.01123,-0.00683,26.70
$IMU,28906.262,-0.183,0.000,-0.122,0.99365,0.01220,-0.00781,26.70
$IMU,28906.265,-0.183,-0.061,-0.122,0.99755,0.01269,-0.00830,26.70
$MAG,28906.266,-0.814,-0.078,-0.247,26.0
$IMU,28906.267,-0.244,0.000,-0.183,0.99609,0.01562,-0.00927,26.72
$IMU,28906.269,-0.244,0.000,-0.122,0.99804,0.01025,-0.01025,26.72
$IMU,28906.272,-0.061,0.122,-0.061,1.00146,0.01318,-0.00634,26.72
