$FLYS,1
$VAR,FIRMWARE_VER,v2024.12.30
$VAR,DEVICE_ID,0017003b3253501720373657
$VAR,SESSION_ID,10d7894eb99bcae81d2bbf1a
$COL,BARO,time,pressure,temperature
$UNIT,BARO,s,Pa,deg C
$COL,HUM,time,humidity,temperature
$UNIT,HUM,s,percent,deg C
$COL,MAG,time,x,y,z,temperature
$UNIT,MAG,s,gauss,gauss,gauss,deg C
$COL,IMU,time,wx,wy,wz,ax,ay,az,temperature
$UNIT,IMU,s,deg/s,deg/s,deg/s,g,g,g,deg C
$COL,TIME,time,tow,week
$UNIT,TIME,s,s,
$COL,VBAT,time,voltage
$UNIT,VBAT,s,volt
$DATA
$IMU,30393.332,8.972,-24.230,-36.804,0.05517,0.87255,-0.00634,21.12
$IMU,30393.334,-9.826,-13.305,-14.038,0.07080,1.04101,-0.00878,21.12
$IMU,30393.337,-3.234,-0.732,1.403,0.07226,1.04394,-0.00781,21.12
$IMU,30393.339,2.319,-3.173,2.624,0.06884,1.04833,0.00341,21.12
$IMU,30393.341,6.225,-4.272,1.220,0.07080,1.04150,0.01513,21.12
$IMU,30393.344,5.737,1.342,0.000,0.07226,1.04248,0.02001,21.12
$IMU,30393.346,1.403,8.850,12.268,0.07812,1.04248,0.01953,21.12
$IMU,30393.348,-2.929,16.723,24.230,0.08593,1.03906,0.02148,21.59
$IMU,30393.351,4.821,3.173,3.356,0.08447,1.04150,0.02392,21.59
$IMU,30393.353,12.207,-9.155,-14.404,0.07666,1.04052,0.02636,21.59
$IMU,30393.356,12.084,-8.911,-14.221,0.07714,1.03808,0.03173,21.59
$IMU,30393.358,11.901,-8.666,-13.732,0.08349,1.03662,0.02783,21.59
$IMU,30393.360,11.474,-7.995,-12.878,0.08789,1.03906,0.02490,21.59
$IMU,30393.363,11.047,-7.690,-13.122,0.08300,1.04687,0.02734,21.59
$IMU,30393.365,10.681,-7.446,-12.939,0.08349,1.04296,0.02978,21.59
$IMU,30393.367,10.192,-6.774,-12.329,0.08740,1.03857,0.03076,21.65
$IMU,30393.370,8.056,-5.554,-11.047,0.09423,1.04394,0.03076,21.65
$IMU,30393.372,0.610,-2.441,-1.403,0.10302,1.05761,0.03173,21.65
$IMU,30393.374,-1.647,-1.464,0.854,0.10156,1.06298,0.03369,21.65
$IMU,30393.377,-2.685,-0.427,0.488,0.09179,1.06347,0.03710,21.65
$IMU,30393.379,-3.295,0.854,0.427,0.08447,1.05419,0.03369,21.65
$IMU,30393.381,-3.967,1.525,0.610,0.07519,1.04931,0.02587,21.65
$IMU,30393.384,-4.455,1.342,0.061,0.06787,1.03369,0.02246,21.65
$IMU,30393.386,-4.638,0.976,-0.488,0.06787,1.02001,0.02294,21.67
$IMU,30393.388,-4.638,0.610,-0.610,0.06103,1.01367,0.02050,21.67
$IMU,30393.391,-4.394,0.122,-1.037,0.06054,1.01220,0.01611,21.67
$IMU,30393.393,-3.845,-0.061,-1.342,0.06396,1.01367,0.00585,21.67
$IMU,30393.395,-3.662,0.061,-1.464,0.06542,1.01269,-0.00146,21.67
$IMU,30393.398,-3.967,0.000,-1.708,0.06054,1.01953,-0.00048,21.67
$IMU,30393.400,-4.333,-0.366,-1.953,0.05224,1.02246,0.00097,21.67
$IMU,30393.402,-5.126,-0.610,-1.403,0.04882,1.02099,-0.00195,21.67
$IMU,30393.405,-5.737,-0.976,-0.427,0.05029,1.02441,-0.00781,21.63
$IMU,30393.407,-5.981,-1.281,0.244,0.05126,1.02490,-0.00976,21.63
$IMU,30393.409,-6.103,-1.464,0.732,0.04785,1.02490,-0.00781,21.63
$IMU,30393.412,-6.164,-1.708,1.342,0.03955,1.02343,-0.00634,21.63
$IMU,30393.414,-5.981,-2.258,1.708,0.03466,1.01269,-0.00830,21.63
$IMU,30393.417,-5.676,-2.502,2.014,0.02832,1.00683,-0.00390,21.63
$IMU,30393.419,-5.371,-2.929,2.563,0.03173,1.00244,-0.00244,21.63
$IMU,30393.421,-4.699,-3.479,3.051,0.03027,1.00341,0.00146,21.63
$IMU,30393.424,-3.540,-3.967,3.234,0.03369,1.01416,0.00683,21.67
$IMU,30393.426,-2.746,-4.455,2.929,0.03417,1.01513,0.00830,21.67
$IMU,30393.428,-3.051,-4.577,2.624,0.03320,1.01416,-0.00927,21.67
$IMU,30393.431,-3.723,-4.821,2.807,0.03173,1.00292,-0.02148,21.67
$IMU,30393.433,-4.211,-5.737,3.234,0.04541,1.00781,-0.01904,21.67
$IMU,30393.435,-5.310,-6.652,3.295,0.05371,1.01513,-0.00537,21.67
$IMU,30393.438,-6.469,-7.324,2.868,0.05224,1.01416,0.00781,21.67
$IMU,30393.440,-7.202,-7.690,2.685,0.04980,1.01367,0.01513,21.67
$IMU,30393.442,-7.751,-7.812,2.929,0.05175,1.00976,0.01660,21.65
$IMU,30393.445,-8.117,-8.117,2.929,0.05517,1.01123,0.01806,21.65
$IMU,30393.447,-8.178,-8.728,2.685,0.05615,1.01562,0.01904,21.65
$IMU,30393.449,-7.507,-9.155,2.624,0.06298,1.01904,0.02734,21.65
$IMU,30393.452,-6.347,-9.216,2.563,0.07714,1.01904,0.03173,21.65
$IMU,30393.454,-5.859,-8.056,2.014,0.08984,1.01611,0.01416,21.65
$IMU,30393.456,-5.554,-6.530,1.464,0.08789,1.01904,-0.00048,21.65
$IMU,30393.459,-5.310,-5.615,1.220,0.07617,1.02050,-0.00341,21.65
$IMU,30393.461,-5.187,-5.249,1.098,0.06152,1.01318,-0.00048,21.65
$IMU,30393.463,-5.187,-4.943,1.403,0.05078,1.00195,0.00976,21.65
$IMU,30393.466,-5.187,-5.065,2.014,0.04687,0.99267,0.01220,21.65
$IMU,30393.468,-5.371,-5.065,2.197,0.04736,0.98730,0.00537,21.65
$IMU,30393.470,-6.042,-5.126,2.380,0.05078,0.98339,0.00195,21.65
$IMU,30393.473,-6.896,-5.432,2.563,0.04638,0.98242,0.00048,21.65
$IMU,30393.475,-7.690,-5.920,3.234,0.04541,0.98388,0.00244,21.65
$IMU,30393.477,-7.873,-6.042,4.089,0.05273,0.98730,0.00292,21.65
$IMU,30393.480,-7.690,-6.042,4.943,0.06347,0.99218,0.00390,21.70
$IMU,30393.482,-7.019,-5.859,5.676,0.06933,0.99853,0.00244,21.70
$IMU,30393.485,-6.347,-5.432,5.981,0.07031,0.99560,0.00781,21.70
$IMU,30393.487,-5.859,-5.126,5.981,0.07421,0.99072,0.01757,21.70
$IMU,30393.489,-5.310,-5.065,5.737,0.08203,0.98779,0.02392,21.70
$IMU,30393.492,-4.577,-5.493,5.371,0.08251,0.99414,0.02880,21.70
$IMU,30393.494,-3.479,-5.859,5.065,0.08740,1.00097,0.03027,21.70
$IMU,30393.496,-1.892,-5.798,4.821,0.10253,1.00683,0.03320,21.70
$IMU,30393.499,-0.671,-5.004,4.577,0.11181,1.00341,0.03369,21.69
$IMU,30393.501,0.366,-3.967,4.516,0.10107,0.99707,0.03369,21.69
$IMU,30393.503,1.342,-3.479,4.455,0.08935,0.99560,0.03564,21.69
$IMU,30393.506,1.892,-3.417,4.150,0.09082,0.99755,0.02685,21.69
$IMU,30393.508,1.647,-3.540,3.173,0.08789,1.00390,0.02246,21.69
$IMU,30393.510,1.342,-3.906,2.441,0.09130,1.00634,0.01855,21.69
$IMU,30393.513,1.281,-3.967,2.136,0.09033,1.00439,0.02441,21.69
$IMU,30393.515,1.220,-3.540,2.075,0.09179,1.00292,0.03027,21.69
$IMU,30393.517,1.159,-3.234,2.075,0.08642,1.00537,0.03613,21.65
$IMU,30393.520,1.220,-2.929,2.136,0.08300,1.00927,0.04248,21.65
$IMU,30393.522,1.281,-2.868,1.831,0.08496,1.01074,0.04052,21.65
$IMU,30393.524,1.586,-2.929,1.342,0.08056,1.00976,0.04052,21.65
$IMU,30393.527,2.075,-2.807,0.976,0.08105,1.01464,0.03710,21.65
$IMU,30393.529,2.136,-2.685,0.366,0.08593,1.01611,0.02685,21.65
$IMU,30393.531,1.647,-2.563,-0.427,0.08447,1.01904,0.01269,21.65
$IMU,30393.534,1.098,-2.868,-0.976,0.07666,1.02392,0.00927,21.65
$IMU,30393.536,0.915,-3.479,-1.159,0.07031,1.02392,0.01806,21.68
$IMU,30393.538,0.610,-3.723,-1.220,0.06591,1.01806,0.02490,21.68
$IMU,30393.541,0.427,-3.662,-1.281,0.06201,1.00683,0.02392,21.68
$IMU,30393.543,0.366,-3.906,-1.159,0.05908,0.99560,0.02197,21.68
$IMU,30393.546,0.793,-4.516,-0.854,0.05126,0.99365,0.02099,21.68
$IMU,30393.548,1.831,-5.554,-0.549,0.05322,0.99316,0.02441,21.68
$IMU,30393.550,3.173,-6.530,-0.427,0.05175,0.99023,0.02929,21.68
$IMU,30393.553,3.906,-6.530,-0.915,0.05761,0.98535,0.02001,21.68
$IMU,30393.555,4.089,-6.286,-1.586,0.06738,0.98730,0.00439,21.67
$IMU,30393.557,3.601,-6.103,-2.197,0.06835,0.99267,-0.00341,21.67
$IMU,30393.560,3.173,-6.286,-2.075,0.06933,0.99267,-0.00244,21.67
$IMU,30393.562,3.234,-6.286,-1.403,0.07177,0.99414,0.00732,21.67
$IMU,30393.564,3.662,-6.164,-0.732,0.07177,1.00488,0.00927,21.67
$IMU,30393.567,4.272,-5.859,-0.610,0.06640,1.01806,0.00683,21.67
$IMU,30393.569,4.455,-5.249,-0.183,0.06494,1.02148,0.01660,21.67
$IMU,30393.571,4.455,-4.943,0.427,0.06591,1.02197,0.01318,21.67
$BARO,30393.573,86027.29,22.39
$IMU,30393.574,4.516,-5.126,1.220,0.06445,1.02343,0.00878,21.70
$IMU,30393.576,4.272,-5.371,1.525,0.07080,1.03222,0.01367,21.70
$IMU,30393.578,4.028,-5.920,1.464,0.07128,1.04150,0.02001,21.70
$MAG,30393.579,-0.483,-0.567,-0.166,20.0
$IMU,30393.581,3.784,-6.103,1.586,0.07519,1.04492,0.02929,21.70
$IMU,30393.583,3.112,-5.554,2.136,0.08056,1.03515,0.03515,21.70
$IMU,30393.585,2.380,-4.699,2.746,0.08349,1.02783,0.03466,21.70
$IMU,30393.588,1.708,-4.272,3.295,0.08544,1.02343,0.03613,21.70
$MAG,30393.589,-0.477,-0.570,-0.178,20.0
$IMU,30393.590,1.281,-4.089,3.540,0.08984,1.01708,0.03759,21.70
$IMU,30393.592,0.854,-4.089,3.417,0.10595,1.01757,0.03906,21.72
$IMU,30393.595,0.000,-3.906,2.807,0.10253,1.02294,0.04150,21.72
$IMU,30393.597,-0.854,-3.295,2.136,0.11230,1.02490,0.04052,21.72
$MAG,30393.599,-0.489,-0.574,-0.177,20.4
$IMU,30393.599,-1.770,-2.685,1.525,0.11083,1.03369,0.03955,21.72
$IMU,30393.602,-2.502,-2.319,1.037,0.11230,1.03662,0.04541,21.72
$IMU,30393.604,-2.990,-1.953,0.488,0.11279,1.03076,0.04833,21.72
$IMU,30393.606,-3.662,-1.281,0.183,0.11132,1.02685,0.05175,21.72
$MAG,30393.609,-0.484,-0.571,-0.178,20.3
$IMU,30393.609,-4.455,-0.671,0.183,0.11132,1.02490,0.04541,21.72
$IMU,30393.611,-5.126,0.061,0.244,0.10351,1.01562,0.03906,21.68
$IMU,30393.614,-5.371,0.366,0.183,0.10058,1.01220,0.03710,21.68
$IMU,30393.616,-5.310,0.549,-0.244,0.09814,1.01123,0.03613,21.68
$HUM,30393.618,40.2,22.6
$IMU,30393.618,-5.249,0.671,-1.037,0.09277,1.01708,0.03710,21.68
$MAG,30393.619,-0.468,-0.571,-0.184,20.2
$IMU,30393.621,-4.760,0.305,-1.892,0.09423,1.02148,0.03759,21.68
$IMU,30393.623,-4.333,0.549,-2.746,0.09472,1.02050,0.03076,21.68
$IMU,30393.625,-4.028,1.037,-3.662,0.08886,1.01855,0.02441,21.68
$IMU,30393.628,-3.967,1.220,-4.089,0.08398,1.01660,0.02148,21.68
$MAG,30393.630,-0.480,-0.571,-0.177,20.2
$IMU,30393.630,-3.784,1.159,-4.028,0.07666,1.01220,0.02197,21.71
$IMU,30393.632,-3.662,0.976,-3.662,0.07226,1.00537,0.02099,21.71
$IMU,30393.635,-3.479,0.854,-3.295,0.06542,0.99951,0.02294,21.71
$IMU,30393.637,-3.295,0.427,-2.868,0.06494,1.00195,0.02392,21.71
$IMU,30393.639,-3.173,0.366,-2.502,0.06445,1.00000,0.02343,21.71
$MAG,30393.640,-0.481,-0.574,-0.177,20.5
$IMU,30393.642,-2.868,0.549,-2.075,0.06201,0.99853,0.02294,21.71
$IMU,30393.644,-2.441,0.488,-1.708,0.06250,0.99658,0.02197,21.71
$IMU,30393.646,-2.136,0.610,-1.403,0.06396,0.99609,0.02050,21.71
$IMU,30393.649,-1.770,0.366,-1.220,0.05957,1.00585,0.01757,21.70
$MAG,30393.650,-0.483,-0.573,-0.183,20.3
$IMU,30393.651,-1.403,0.122,-0.854,0.05761,1.01220,0.01757,21.70
$IMU,30393.653,-0.854,0.366,-0.244,0.06054,1.01416,0.01660,21.70
$IMU,30393.656,-0.671,0.793,0.488,0.06347,1.01464,0.01513,21.70
$IMU,30393.658,-0.549,1.220,1.342,0.05468,1.01757,0.01416,21.70
$MAG,30393.660,-0.481,-0.570,-0.178,20.2
$IMU,30393.660,-0.610,1.037,2.197,0.05175,1.01953,0.01513,21.70
$IMU,30393.663,-0.671,0.366,3.051,0.04589,1.01806,0.02148,21.70
$IMU,30393.665,-0.427,-0.549,4.089,0.04833,1.01953,0.02832,21.70
$IMU,30393.667,-0.061,-1.403,4.699,0.05078,1.01513,0.03076,21.69
$MAG,30393.670,-0.478,-0.567,-0.177,20.5
$IMU,30393.670,0.366,-1.647,4.943,0.04443,1.01660,0.03906,21.69
$IMU,30393.672,1.220,-1.892,5.310,0.03759,1.01269,0.04199,21.69
$BARO,30393.675,86035.99,22.40
$IMU,30393.675,2.136,-2.441,5.493,0.05468,1.00976,0.03271,21.69
$IMU,30393.677,1.708,-2.807,5.493,0.05566,0.99462,0.01318,21.69
$IMU,30393.679,1.403,-3.662,5.737,0.05859,0.99169,0.00781,21.69
$MAG,30393.680,-0.487,-0.565,-0.181,20.5
$IMU,30393.682,1.159,-4.455,5.981,0.07373,0.99951,0.01660,21.69
$IMU,30393.684,0.427,-4.577,5.676,0.09082,1.00927,0.02246,21.69
$IMU,30393.686,-0.610,-4.272,5.126,0.08837,1.01904,0.02246,21.69
$IMU,30393.689,-1.281,-4.516,4.638,0.08300,1.02636,0.02783,21.69
$MAG,30393.690,-0.486,-0.574,-0.180,20.4
$IMU,30393.691,-1.770,-4.638,4.272,0.08593,1.02734,0.03466,21.69
$IMU,30393.693,-2.319,-4.577,4.333,0.08642,1.02685,0.03662,21.69
$IMU,30393.696,-2.502,-4.882,4.455,0.08251,1.03222,0.03564,21.69
$IMU,30393.698,-2.380,-5.065,4.699,0.08642,1.03759,0.04638,21.69
$MAG,30393.700,-0.481,-0.579,-0.181,20.4
$IMU,30393.700,-2.502,-4.882,4.943,0.09033,1.03369,0.04248,21.69
$IMU,30393.703,-2.746,-4.455,5.187,0.08984,1.02685,0.03320,21.69
$IMU,30393.705,-2.746,-4.333,5.554,0.08740,1.01806,0.02734,21.69
$IMU,30393.707,-2.929,-4.455,6.042,0.08837,1.01855,0.02587,21.69
$MAG,30393.710,-0.484,-0.573,-0.184,20.5
$IMU,30393.710,-2.868,-4.760,6.286,0.08837,1.01123,0.03320,21.69
$IMU,30393.712,-2.685,-4.821,6.469,0.09130,1.00292,0.03515,21.69
$IMU,30393.714,-2.502,-4.699,6.347,0.09423,0.99804,0.03320,21.69
$IMU,30393.717,-2.502,-4.333,5.920,0.09960,1.00292,0.03125,21.69
$IMU,30393.719,-1.892,-4.333,5.493,0.10253,1.00292,0.03027,21.69
$MAG,30393.720,-0.474,-0.568,-0.181,20.4
$IMU,30393.721,-1.098,-4.211,5.065,0.10253,1.00341,0.03271,21.69
$IMU,30393.724,-0.427,-3.723,4.699,0.10693,1.00488,0.03369,21.70
$IMU,30393.726,-0.061,-3.417,4.211,0.10986,1.00585,0.02783,21.70
$IMU,30393.728,0.366,-3.479,3.784,0.07714,0.98974,-0.01562,21.70
$MAG,30393.730,-0.483,-0.570,-0.178,20.5
$IMU,30393.731,4.150,-9.643,3.540,0.00146,0.93261,-0.20312,21.70
$IMU,30393.733,6.225,-21.301,5.187,0.06640,0.97216,-0.09570,21.70
$IMU,30393.735,3.356,-22.705,6.042,0.14306,1.05371,0.14501,21.70
$IMU,30393.738,0.610,-13.244,4.882,0.16259,1.06445,0.27880,21.70
$MAG,30393.740,-0.481,-0.582,-0.175,20.5
$IMU,30393.740,-0.244,-0.427,2.380,0.13574,1.03613,0.20068,21.70
$IMU,30393.743,1.220,5.615,-0.366,0.09521,0.99707,0.02734,21.68
$IMU,30393.745,2.441,3.295,-1.647,0.07763,0.98974,-0.07666,21.68
$IMU,30393.747,2.075,-2.014,-1.892,0.07714,0.99951,-0.06347,21.68
$MAG,30393.750,-0.483,-0.573,-0.177,20.5
$IMU,30393.750,1.281,-5.004,-1.525,0.07617,1.00830,0.00097,21.68
$IMU,30393.752,0.427,-4.150,-0.915,0.07275,1.00195,0.04199,21.68
$IMU,30393.754,0.183,-1.770,-0.732,0.06640,0.99902,0.04248,21.68
$IMU,30393.757,0.305,-0.488,-0.732,0.05517,0.99121,0.02685,21.68
$IMU,30393.759,0.915,-1.464,-0.610,0.05078,0.97119,0.00927,21.68
$MAG,30393.761,-0.483,-0.574,-0.175,20.5
$IMU,30393.761,1.342,-3.356,-0.183,0.05175,0.96679,-0.00097,21.73
$IMU,30393.764,1.159,-4.699,0.122,0.04980,0.96093,-0.00195,21.73
$IMU,30393.766,0.976,-5.493,0.366,0.04687,0.96191,0.00000,21.73
$IMU,30393.768,0.854,-5.615,0.427,0.04980,0.96582,0.00683,21.73
$MAG,30393.771,-0.478,-0.583,-0.181,20.5
$IMU,30393.771,1.037,-5.615,0.183,0.05712,0.97021,0.00830,21.73
$IMU,30393.773,1.098,-5.737,-0.244,0.06152,0.97656,0.00976,21.73
$IMU,30393.775,1.342,-6.042,-1.037,0.06494,0.98535,0.01025,21.73
$BARO,30393.776,86034.87,22.40
$IMU,30393.778,1.892,-6.652,-1.586,0.06787,0.99121,0.00976,21.73
$IMU,30393.780,2.624,-7.019,-2.258,0.07324,0.99462,0.00878,21.69
$MAG,30393.781,-0.478,-0.573,-0.177,20.4
$IMU,30393.782,3.295,-7.202,-2.990,0.07519,0.99853,0.01025,21.69
$IMU,30393.785,3.967,-7.324,-3.906,0.07470,1.00244,0.01074,21.69
$IMU,30393.787,4.577,-7.263,-4.699,0.07275,1.00292,0.01269,21.69
$IMU,30393.789,5.187,-7.934,-5.310,0.06494,1.00341,0.01171,21.69
$MAG,30393.791,-0.486,-0.574,-0.181,20.5
$IMU,30393.792,5.371,-8.666,-5.676,0.06152,0.99951,0.00927,21.69
$IMU,30393.794,5.798,-9.704,-5.615,0.06152,0.98437,0.00390,21.69
$IMU,30393.796,6.469,-11.352,-5.981,0.05273,1.00830,0.00244,21.69
$IMU,30393.799,6.042,-12.329,-7.080,0.06787,1.00878,0.00634,21.70
$MAG,30393.801,-0.475,-0.576,-0.186,20.4
$IMU,30393.801,4.455,-12.329,-8.972,0.07031,1.00244,-0.00390,21.70
$IMU,30393.804,3.784,-12.695,-10.559,0.06640,0.99951,-0.02148,21.70
$IMU,30393.806,4.333,-13.977,-11.352,0.06884,1.00976,-0.01562,21.70
$IMU,30393.808,4.638,-15.930,-11.169,0.06835,1.03808,0.00683,21.70
$MAG,30393.811,-0.478,-0.574,-0.177,20.5
$IMU,30393.811,4.333,-17.456,-10.070,0.07519,1.05810,0.01904,21.70
$IMU,30393.813,3.723,-17.822,-7.812,0.07861,1.05419,0.00732,21.70
$IMU,30393.815,2.990,-17.211,-5.310,0.07324,1.04980,-0.00927,21.70
$IMU,30393.818,1.586,-16.723,-3.295,0.05175,1.05078,-0.01806,21.69
$IMU,30393.820,0.183,-18.005,-1.892,0.02929,1.04833,-0.02148,21.69
$MAG,30393.821,-0.484,-0.568,-0.171,20.5
$IMU,30393.822,-1.708,-19.714,-0.427,0.04931,1.06054,0.02001,21.69
$IMU,30393.825,-4.943,-18.493,0.976,0.09130,1.08007,0.09863,21.69
$IMU,30393.827,-7.141,-14.648,1.098,0.07324,1.07861,0.09326,21.69
$IMU,30393.829,-7.446,-12.451,0.793,0.05664,1.04589,0.02001,21.69
$MAG,30393.831,-0.478,-0.573,-0.172,20.7
$IMU,30393.832,-7.446,-13.183,0.976,0.05517,1.03173,-0.03320,21.69
$IMU,30393.834,-7.690,-15.136,1.586,0.05664,1.02734,-0.02685,21.69
$IMU,30393.836,-7.873,-16.052,2.624,0.05859,1.02832,0.01074,21.70
$IMU,30393.839,-8.239,-15.014,3.479,0.07275,1.02587,0.03515,21.70
$MAG,30393.841,-0.471,-0.565,-0.180,20.5
$IMU,30393.841,-8.789,-13.183,3.784,0.08056,1.02636,0.02978,21.70
$IMU,30393.843,-9.399,-11.535,3.845,0.07812,1.02880,0.02246,21.70
$IMU,30393.846,-9.765,-11.108,4.272,0.07470,1.03027,0.01806,21.70
$IMU,30393.848,-10.009,-11.230,5.126,0.07958,1.03222,0.02539,21.70
$IMU,30393.850,-10.498,-10.986,6.042,0.08398,1.03125,0.03515,21.70
$MAG,30393.851,-0.480,-0.573,-0.180,20.7
$IMU,30393.853,-11.047,-10.253,6.774,0.08593,1.03173,0.03271,21.70
$IMU,30393.855,-11.413,-9.460,7.446,0.08300,1.02978,0.03222,21.67
$IMU,30393.857,-11.596,-8.605,7.812,0.07861,1.02490,0.03125,21.67
$IMU,30393.860,-11.413,-8.483,7.995,0.07666,1.00927,0.02978,21.67
$MAG,30393.861,-0.480,-0.568,-0.174,20.5
$IMU,30393.862,-10.742,-8.972,7.995,0.07324,0.99707,0.03320,21.67
$IMU,30393.864,-9.643,-9.582,7.568,0.07910,0.98681,0.03564,21.67
$IMU,30393.867,-8.544,-9.826,6.958,0.08056,0.97460,0.03320,21.67
$IMU,30393.869,-7.080,-10.131,6.225,0.07421,0.96875,0.02343,21.67
$MAG,30393.871,-0.477,-0.573,-0.180,20.5
$IMU,30393.872,-5.554,-10.437,5.493,0.06982,0.95996,0.02246,21.67
$IMU,30393.874,-3.479,-11.047,5.249,0.07128,0.96191,0.02636,21.71
$IMU,30393.876,-1.525,-11.413,4.760,0.05908,0.96289,0.01025,21.71
$BARO,30393.878,86024.78,22.40
$IMU,30393.879,1.403,-13.549,4.211,-0.00390,0.93505,-0.06787,21.71
$MAG,30393.881,-0.471,-0.571,-0.175,20.7
$IMU,30393.881,4.943,-18.981,4.638,0.03759,0.93310,-0.05322,21.71
$IMU,30393.883,4.272,-19.958,6.652,0.14306,1.00585,0.09326,21.71
$IMU,30393.886,2.380,-13.305,6.958,0.17138,1.05566,0.19384,21.71
$IMU,30393.888,2.868,-5.004,5.676,0.11132,1.03662,0.14550,21.71
$IMU,30393.890,6.469,-2.258,4.272,0.08496,1.00585,0.04199,21.71
$MAG,30393.892,-0.477,-0.568,-0.183,20.5
$IMU,30393.893,7.812,-3.479,3.540,0.08154,0.99560,-0.03613,21.71
$IMU,30393.895,6.958,-6.042,3.234,0.06933,1.00048,-0.04736,21.71
$IMU,30393.897,6.164,-8.117,3.540,0.06982,1.01123,-0.01220,21.71
$IMU,30393.900,5.920,-8.483,3.845,0.08007,1.01757,0.01953,21.71
$MAG,30393.902,-0.480,-0.564,-0.172,20.5
$IMU,30393.902,5.859,-6.958,2.868,0.08837,1.01074,0.02929,21.71
$IMU,30393.904,5.859,-5.676,1.220,0.08691,1.00439,0.01513,21.71
$IMU,30393.907,5.737,-5.920,-0.488,0.08837,0.99316,0.00097,21.71
$IMU,30393.909,5.187,-6.530,-1.770,0.08740,0.97607,-0.00585,21.71
$IMU,30393.911,4.394,-6.835,-2.380,0.08349,0.96679,-0.00683,21.74
$MAG,30393.912,-0.472,-0.574,-0.178,20.5
$IMU,30393.914,4.150,-7.202,-2.685,0.07421,0.96728,-0.00195,21.74
$IMU,30393.916,4.211,-7.080,-2.929,0.07080,0.96679,0.00683,21.74
$IMU,30393.918,5.126,-7.202,-3.540,0.07128,0.96923,0.00878,21.74
$IMU,30393.921,6.652,-7.568,-4.577,0.07617,0.96435,0.00195,21.74
$MAG,30393.922,-0.475,-0.573,-0.175,20.5
$IMU,30393.923,7.934,-7.751,-6.164,0.07519,0.96142,-0.01318,21.74
$IMU,30393.925,9.399,-8.117,-7.751,0.07568,0.95507,-0.02636,21.74
$IMU,30393.928,10.314,-8.728,-9.277,0.07568,0.95458,-0.02636,21.74
$IMU,30393.930,10.253,-10.070,-10.803,0.07568,0.95751,-0.02343,21.74
$MAG,30393.932,-0.477,-0.571,-0.178,20.5
$IMU,30393.933,10.009,-11.962,-12.329,0.06982,0.97900,-0.01367,21.74
$IMU,30393.935,9.826,-13.854,-13.305,0.06738,1.00830,0.00683,21.74
$IMU,30393.937,9.887,-15.014,-12.939,0.07617,1.02587,0.02246,21.74
$IMU,30393.940,9.399,-13.671,-11.596,0.08886,1.02929,0.02246,21.74
$MAG,30393.942,-0.471,-0.570,-0.180,20.7
$IMU,30393.942,8.483,-11.108,-9.948,0.08789,1.03222,0.01611,21.74
$IMU,30393.944,6.896,-8.666,-8.239,0.08447,1.03173,0.00830,21.74
$IMU,30393.947,4.943,-7.690,-7.080,0.07666,1.03271,0.00683,21.74
$IMU,30393.949,3.112,-8.056,-6.164,0.07910,1.02490,0.00976,21.73
$IMU,30393.951,1.770,-8.911,-5.493,0.07910,1.01953,0.01513,21.73
$MAG,30393.952,-0.469,-0.571,-0.172,20.5
$IMU,30393.954,0.915,-9.582,-5.249,0.08007,1.00927,0.01757,21.73
$IMU,30393.956,0.427,-9.460,-5.249,0.08740,1.00292,0.01367,21.73
$IMU,30393.958,0.549,-8.850,-5.676,0.09277,1.00000,0.00927,21.73
$IMU,30393.961,1.159,-8.300,-6.042,0.09130,0.99658,0.00537,21.73
$MAG,30393.962,-0.465,-0.562,-0.172,20.5
$IMU,30393.963,1.953,-7.629,-6.347,0.09130,0.99755,-0.00195,21.73
$IMU,30393.965,2.929,-6.896,-6.530,0.09033,0.98925,-0.00292,21.73
$IMU,30393.968,3.784,-6.652,-6.835,0.08300,0.98339,-0.00292,21.72
$IMU,30393.970,4.394,-6.713,-7.202,0.07714,0.98388,-0.00244,21.72
$MAG,30393.972,-0.471,-0.582,-0.168,20.5
$IMU,30393.972,4.821,-7.141,-7.629,0.07373,0.98242,-0.00244,21.72
$IMU,30393.975,4.882,-7.812,-8.056,0.07177,0.98144,-0.00292,21.72
$IMU,30393.977,4.821,-8.422,-8.239,0.07031,0.98291,-0.00781,21.72
$BARO,30393.979,86026.12,22.40
$IMU,30393.979,4.455,-8.605,-8.300,0.07128,0.98486,-0.00634,21.72
$MAG,30393.982,-0.462,-0.570,-0.165,20.5
$IMU,30393.982,4.028,-8.789,-8.056,0.07275,0.98925,-0.00292,21.72
$IMU,30393.984,3.417,-8.544,-7.568,0.07666,0.99707,0.00097,21.72
$IMU,30393.986,2.624,-8.239,-7.019,0.07177,1.00146,0.00781,21.70
$IMU,30393.989,1.953,-7.873,-6.530,0.07080,1.00537,0.01562,21.70
$IMU,30393.991,1.037,-7.263,-6.103,0.06494,1.00097,0.01562,21.70
$MAG,30393.992,-0.462,-0.571,-0.181,20.5
$IMU,30393.993,0.061,-6.286,-5.371,0.06152,1.00292,0.01855,21.70
$IMU,30393.996,-0.854,-5.310,-4.577,0.05615,1.00146,0.01269,21.70
$IMU,30393.998,-1.220,-4.882,-3.906,0.05664,1.00537,0.01025,21.70
$IMU,30394.001,-1.159,-5.126,-3.540,0.05810,1.00585,0.00585,21.70
$MAG,30394.002,-0.474,-0.570,-0.169,20.7
$IMU,30394.003,-0.854,-5.615,-3.479,0.06054,1.00830,0.00244,21.70
$IMU,30394.005,-0.671,-5.981,-3.845,0.06396,1.01562,0.00048,21.76
$IMU,30394.008,-0.366,-6.347,-4.272,0.06640,1.02050,-0.00146,21.76
$IMU,30394.010,-0.061,-6.469,-4.760,0.06835,1.02197,-0.00097,21.76
$MAG,30394.012,-0.468,-0.573,-0.169,20.7
$IMU,30394.012,0.244,-6.408,-5.249,0.06689,1.01806,0.00048,21.76
$IMU,30394.015,0.549,-6.469,-5.615,0.06494,1.01660,0.01074,21.76
$IMU,30394.017,0.976,-6.713,-5.981,0.06542,1.01171,0.01562,21.76
$IMU,30394.019,1.098,-6.652,-6.225,0.06298,1.00781,0.01660,21.76
$IMU,30394.022,1.403,-7.080,-6.347,0.05908,1.01367,0.01416,21.76
$MAG,30394.023,-0.463,-0.574,-0.171,20.4
$IMU,30394.024,1.647,-7.019,-6.408,0.05664,1.01660,0.01025,21.74
$IMU,30394.026,1.953,-7.141,-6.347,0.05712,1.02539,0.00244,21.74
$IMU,30394.029,2.563,-6.713,-6.042,0.06005,1.02978,-0.00292,21.74
$IMU,30394.031,3.295,-6.286,-5.187,0.05664,1.03222,-0.01025,21.74
$MAG,30394.033,-0.468,-0.564,-0.172,20.7
$IMU,30394.033,4.272,-6.103,-4.211,0.05566,1.04199,-0.00537,21.74
$IMU,30394.036,5.004,-5.615,-3.479,0.05029,1.05566,-0.00292,21.74
$IMU,30394.038,5.432,-5.310,-2.990,0.05468,1.05419,0.00000,21.74
$IMU,30394.040,5.615,-5.310,-2.380,0.05615,1.05517,-0.00097,21.74
$MAG,30394.043,-0.460,-0.568,-0.172,20.5
$IMU,30394.043,5.676,-5.676,-1.525,0.05810,1.05859,0.00488,21.72
$IMU,30394.045,5.432,-5.493,-0.793,0.05468,1.04931,0.01025,21.72
$IMU,30394.047,5.249,-5.493,-0.122,0.05468,1.04443,0.01806,21.72
$IMU,30394.050,4.760,-4.943,0.183,0.05615,1.03808,0.02734,21.72
$IMU,30394.052,4.211,-4.394,0.183,0.06103,1.03613,0.02636,21.72
$MAG,30394.053,-0.463,-0.576,-0.165,20.5
$IMU,30394.054,3.540,-4.089,-0.122,0.06542,1.04199,0.01562,21.72
$IMU,30394.057,3.112,-4.089,-0.122,0.06591,1.04541,0.00097,21.72
$IMU,30394.059,3.295,-4.272,0.183,0.06640,1.05371,-0.01220,21.72
$IMU,30394.062,3.906,-4.028,0.549,0.07568,1.05761,-0.02148,21.72
$MAG,30394.063,-0.469,-0.573,-0.178,20.5
$IMU,30394.064,4.943,-3.540,1.281,0.08496,1.06250,-0.01562,21.72
$IMU,30394.066,5.676,-2.319,2.258,0.08837,1.05517,-0.01367,21.72
$IMU,30394.069,6.103,-0.793,3.479,0.09814,1.04736,-0.00781,21.72
$IMU,30394.071,5.859,0.610,5.493,0.14111,1.00146,0.00195,21.72
$MAG,30394.073,-0.465,-0.571,-0.171,20.5
$IMU,30394.073,5.249,1.586,9.643,0.06054,1.03808,0.01025,21.72
$IMU,30394.076,4.821,1.953,10.864,0.02880,1.07617,0.02441,21.72
$IMU,30394.078,3.967,1.770,10.681,0.05371,1.06787,0.03808,21.72
$IMU,30394.080,2.868,3.479,10.131,0.07275,1.05078,0.06689,21.72
$BARO,30394.081,86025.20,22.40
$MAG,30394.083,-0.468,-0.570,-0.178,20.5
$IMU,30394.083,2.380,6.103,9.521,0.08642,1.02294,0.08300,21.72
$IMU,30394.085,2.136,8.789,9.765,0.08886,1.00634,0.08300,21.72
$IMU,30394.087,2.685,10.437,10.498,0.08544,0.99072,0.07031,21.72
$IMU,30394.090,3.417,11.413,11.596,0.07861,0.98779,0.04980,21.72
$IMU,30394.092,3.906,11.779,12.878,0.06787,0.98437,0.03369,21.72
$MAG,30394.093,-0.456,-0.568,-0.171,20.5
$IMU,30394.094,4.882,12.023,14.160,0.06494,0.98291,0.02490,21.72
$IMU,30394.097,6.225,12.145,15.502,0.05908,0.97363,0.02880,21.72
$IMU,30394.099,7.507,12.634,16.479,0.06494,0.96191,0.03320,21.76
$IMU,30394.101,8.178,13.122,17.028,0.06982,0.95605,0.03271,21.76
$MAG,30394.103,-0.457,-0.561,-0.165,20.5
$IMU,30394.104,8.300,13.122,17.517,0.07568,0.95263,0.03125,21.76
$IMU,30394.106,8.239,12.451,18.127,0.08837,0.95263,0.02490,21.76
$IMU,30394.108,7.873,11.596,18.371,0.10302,0.95312,0.00927,21.76
$IMU,30394.111,7.202,11.230,17.517,0.11132,0.95898,-0.00634,21.76
$MAG,30394.113,-0.468,-0.561,-0.169,20.7
$IMU,30394.113,6.164,10.986,15.747,0.11572,0.96679,-0.01416,21.76
$IMU,30394.115,5.187,10.009,13.488,0.10498,0.99072,-0.00146,21.76
$IMU,30394.118,4.516,9.033,11.535,0.09619,0.99755,0.00244,21.72
$IMU,30394.120,3.906,7.568,9.521,0.03710,1.03271,-0.02001,21.72
$IMU,30394.122,9.643,-2.868,2.441,-0.41113,0.78759,-0.44824,21.72
$MAG,30394.123,-0.477,-0.573,-0.171,20.7
$IMU,30394.125,22.888,-32.714,-1.831,-0.17187,0.86669,-0.43603,21.72
$IMU,30394.127,18.981,-48.278,3.234,0.11425,0.97705,-0.07714,21.72
$IMU,30394.130,12.817,-43.823,7.934,0.30224,1.00000,0.18554,21.72
$IMU,30394.132,6.530,-25.817,13.366,0.46191,1.06591,0.41064,21.72
$MAG,30394.133,-0.475,-0.571,-0.163,20.7
$IMU,30394.134,0.732,0.610,17.761,0.44482,1.08398,0.48339,21.72
$IMU,30394.137,0.793,22.766,17.211,0.22265,1.00732,0.23095,21.76
$IMU,30394.139,7.263,27.038,14.160,0.10058,1.01708,-0.03320,21.76
$IMU,30394.141,11.108,18.798,11.718,0.05419,1.03369,-0.13476,21.76
$MAG,30394.144,-0.471,-0.556,-0.156,20.7
$IMU,30394.144,11.291,8.850,9.094,0.05126,1.02148,-0.13867,21.76
$IMU,30394.146,8.728,2.868,6.896,0.07177,1.01562,-0.10058,21.76
$IMU,30394.148,4.638,1.708,5.981,0.08837,1.02734,-0.05029,21.76
$IMU,30394.151,0.671,3.662,5.676,0.09912,1.04687,-0.02685,21.76
$IMU,30394.153,-2.197,7.019,5.249,0.11621,1.05126,-0.02392,21.76
$MAG,30394.154,-0.468,-0.567,-0.163,20.7
$IMU,30394.155,-4.028,9.704,4.821,0.12304,1.04492,-0.02832,21.75
$IMU,30394.158,-4.516,10.437,4.455,0.12548,1.03222,-0.02539,21.75
$IMU,30394.160,-4.272,10.131,4.333,0.11718,1.01513,-0.01513,21.75
$IMU,30394.162,-0.183,15.625,2.380,0.00488,1.03613,-0.03710,21.75
$MAG,30394.164,-0.477,-0.561,-0.168,20.7
$IMU,30394.165,8.178,36.193,-2.807,0.01611,1.03027,-0.00439,21.75
$IMU,30394.167,15.319,58.654,-6.652,0.05322,0.97656,-0.05224,21.75
$IMU,30394.169,25.451,84.899,-11.779,0.17919,0.92578,-0.05029,21.75
$IMU,30394.172,27.770,93.811,-13.854,0.21386,0.91015,-0.02636,21.75
$IMU,30394.174,24.353,81.054,-13.549,0.18408,0.93554,0.00927,21.71
$MAG,30394.174,-0.474,-0.561,-0.159,20.5
$IMU,30394.176,17.822,57.922,-11.535,0.13525,0.95800,0.04296,21.71
$IMU,30394.179,9.155,32.897,-7.446,0.08056,0.97119,0.07080,21.71
$IMU,30394.181,0.610,11.169,-1.586,0.05566,0.97021,0.07080,21.71
$BARO,30394.182,86030.31,22.40
$IMU,30394.183,-4.638,0.427,3.784,0.05712,0.96826,0.05224,21.71
$MAG,30394.184,-0.474,-0.564,-0.165,20.5
$IMU,30394.186,-5.554,1.525,6.713,0.08300,0.98339,0.02392,21.71
$IMU,30394.188,-4.089,7.812,6.530,0.09277,0.99609,-0.01025,21.71
$IMU,30394.191,-2.197,13.183,3.356,0.09033,1.01611,-0.03662,21.71
$IMU,30394.193,-0.549,14.648,-0.854,0.08837,1.02441,-0.04443,21.75
$MAG,30394.194,-0.474,-0.559,-0.163,20.7
$IMU,30394.195,0.793,12.390,-4.516,0.09277,1.02246,-0.03955,21.75
$IMU,30394.198,1.831,8.605,-6.958,0.09570,1.00830,-0.03125,21.75
$IMU,30394.200,2.563,5.371,-7.812,0.10058,0.99511,-0.02929,21.75
$IMU,30394.202,3.295,3.784,-7.385,0.10400,0.98681,-0.01904,21.75
$MAG,30394.204,-0.486,-0.555,-0.169,20.7
$IMU,30394.205,4.272,4.272,-6.286,0.10937,0.99072,-0.01513,21.75
$IMU,30394.207,5.493,5.981,-5.126,0.11816,1.00146,-0.01806,21.75
$IMU,30394.209,7.202,8.544,-3.967,0.15869,1.02587,-0.01855,21.75
$IMU,30394.212,7.873,12.145,-1.464,0.11962,1.00439,0.02587,21.75
$MAG,30394.214,-0.477,-0.558,-0.168,20.7
$IMU,30394.214,7.873,14.587,-1.892,0.12304,1.01123,-0.00048,21.75
$IMU,30394.216,10.498,17.456,-2.990,0.11767,1.01953,-0.00537,21.75
$IMU,30394.219,13.244,22.155,-4.821,0.11132,1.00927,-0.01757,21.75
$IMU,30394.221,16.174,28.381,-6.896,0.10449,1.00781,-0.02441,21.75
$IMU,30394.223,19.470,33.691,-8.361,0.09326,1.01025,-0.02148,21.75
$MAG,30394.224,-0.480,-0.562,-0.163,20.7
$IMU,30394.226,21.484,34.057,-8.483,0.07177,1.00830,-0.00878,21.75
$IMU,30394.228,21.850,29.113,-7.324,0.06005,1.01562,-0.00830,21.75
$IMU,30394.230,19.409,21.667,-5.798,0.05712,1.01025,-0.02001,21.80
$IMU,30394.233,16.296,14.770,-4.516,0.06494,1.00341,-0.03173,21.80
$MAG,30394.234,-0.481,-0.562,-0.154,20.7
$IMU,30394.235,13.000,10.620,-3.662,0.07470,1.00244,-0.03515,21.80
$IMU,30394.237,9.521,8.728,-3.417,0.07910,1.00927,-0.04345,21.80
$IMU,30394.240,6.164,8.544,-3.906,0.08300,1.01904,-0.05224,21.80
$IMU,30394.242,3.417,8.911,-4.943,0.07519,1.03369,-0.05712,21.80
$MAG,30394.244,-0.486,-0.561,-0.165,20.7
$IMU,30394.244,1.220,9.216,-6.225,0.05615,1.05175,-0.06250,21.80
$IMU,30394.247,-0.610,8.972,-7.080,0.03759,1.05029,-0.06250,21.80
$IMU,30394.249,-2.075,7.507,-7.324,0.02880,1.04736,-0.06054,21.79
$IMU,30394.251,-3.356,6.103,-6.835,0.01904,1.03808,-0.06103,21.79
$MAG,30394.254,-0.472,-0.559,-0.159,20.7
$IMU,30394.254,-4.333,4.882,-5.737,0.01953,1.02685,-0.06005,21.79
$IMU,30394.256,-4.943,3.662,-4.272,0.02001,1.01367,-0.06005,21.79
$IMU,30394.259,-5.554,2.929,-2.502,0.02685,1.00781,-0.05419,21.79
$IMU,30394.261,-6.103,2.319,-0.610,0.03125,1.00341,-0.04492,21.79
$IMU,30394.263,-6.530,1.892,0.732,0.03076,0.99023,-0.03417,21.79
$MAG,30394.265,-0.487,-0.562,-0.165,20.7
$IMU,30394.266,-6.835,1.831,1.586,0.02587,0.98388,-0.02392,21.79
$IMU,30394.268,-7.141,1.220,1.647,0.01855,0.97216,-0.02050,21.74
$IMU,30394.270,-7.202,0.488,0.915,0.01123,0.97363,-0.01562,21.74
$IMU,30394.273,-6.164,-0.793,-0.671,0.01123,0.97167,-0.01220,21.74
$MAG,30394.275,-0.484,-0.555,-0.160,20.7
$IMU,30394.275,-5.310,-2.014,-2.807,0.01660,0.97509,-0.03710,21.74
$IMU,30394.277,-4.699,-2.563,-4.943,0.01367,0.98388,-0.05957,21.74
$IMU,30394.280,-2.929,-2.624,-6.835,0.01025,0.99267,-0.06982,21.74
$IMU,30394.282,-0.793,-1.892,-8.483,0.01416,0.99853,-0.07373,21.74
$BARO,30394.284,86021.95,22.40
$IMU,30394.284,1.220,-0.305,-9.643,0.01074,1.00976,-0.07373,21.74
$MAG,30394.285,-0.480,-0.565,-0.166,20.7
$IMU,30394.287,2.563,1.525,-9.826,0.00341,1.01416,-0.06689,21.76
$IMU,30394.289,2.502,1.342,-9.094,0.00146,1.02148,-0.05615,21.76
$IMU,30394.291,0.915,-2.136,-7.751,-0.01074,1.03613,-0.05029,21.76
$IMU,30394.294,-1.159,-7.446,-6.103,-0.01269,1.03564,-0.04736,21.76
$MAG,30394.295,-0.480,-0.561,-0.166,20.5
$IMU,30394.296,-2.502,-12.451,-4.638,-0.01416,1.03076,-0.04345,21.76
$IMU,30394.298,-3.051,-15.014,-3.295,0.00000,1.02441,-0.03808,21.76
$IMU,30394.301,-2.685,-15.686,-2.258,0.00634,1.02148,-0.03027,21.76
$IMU,30394.303,-1.770,-15.197,-1.586,0.01269,1.02343,-0.02587,21.76
$MAG,30394.305,-0.474,-0.567,-0.163,20.5
$IMU,30394.305,-0.244,-14.038,-1.220,0.01708,1.02587,-0.03173,21.79
$IMU,30394.308,1.708,-12.451,-0.915,0.02734,1.02539,-0.03320,21.79
$IMU,30394.310,4.394,-9.582,-0.854,0.03710,1.01464,-0.04296,21.79
$IMU,30394.312,9.460,-2.014,-2.075,0.05761,0.99511,-0.05126,21.79
$MAG,30394.315,-0.480,-0.562,-0.162,20.5
$IMU,30394.315,15.808,10.498,-4.699,0.08837,0.98339,-0.04638,21.79
$IMU,30394.317,20.080,20.996,-6.896,0.09814,0.99218,-0.04248,21.79
$IMU,30394.320,20.996,23.803,-7.690,0.08593,1.02734,-0.04980,21.79
$IMU,30394.322,19.165,18.310,-7.751,0.06787,1.05664,-0.07470,21.79
$IMU,30394.324,16.845,7.873,-8.117,0.06738,1.07324,-0.08789,21.80
$MAG,30394.325,-0.471,-0.562,-0.166,20.7
$IMU,30394.327,12.634,-2.746,-7.995,0.09326,1.08154,-0.05810,21.80
$IMU,30394.329,9.216,-9.521,-6.469,0.13623,1.07128,-0.03808,21.80
$VBAT,30394.330,4.124
$IMU,30394.331,7.690,-13.122,-3.417,0.15673,1.07812,-0.02197,21.80
$IMU,30394.334,4.943,-14.953,-1.647,0.14062,1.08447,0.01123,21.80
$MAG,30394.335,-0.472,-0.562,-0.157,20.7
$IMU,30394.336,3.723,-13.793,-1.098,0.15283,1.10058,0.01660,21.80
$IMU,30394.338,3.479,-10.986,-0.793,0.15234,1.11621,0.02685,21.80
$IMU,30394.341,3.051,-7.568,-1.342,0.14746,1.12158,0.03466,21.80
$IMU,30394.343,2.563,-3.906,-2.929,0.14013,1.11962,0.03857,21.73
$MAG,30394.345,-0.477,-0.559,-0.160,20.5
$IMU,30394.345,2.685,-0.793,-5.310,0.13867,1.11230,0.04248,21.73
$IMU,30394.348,3.112,1.892,-7.568,0.13623,1.10058,0.03906,21.73
$IMU,30394.350,3.723,4.028,-9.216,0.13134,1.07812,0.03173,21.73
$IMU,30394.352,4.577,4.943,-10.253,0.13281,1.05810,0.02392,21.73
$MAG,30394.355,-0.480,-0.570,-0.162,20.7
$IMU,30394.355,5.310,5.371,-10.559,0.13964,1.04345,0.02294,21.73
$IMU,30394.357,5.737,5.676,-10.253,0.14550,1.03808,0.02783,21.73
$IMU,30394.359,5.981,6.225,-9.643,0.14648,1.03857,0.03466,21.73
$IMU,30394.362,6.286,7.141,-9.155,0.13671,1.03466,0.04199,21.77
$IMU,30394.364,6.530,8.850,-9.338,0.12646,1.03710,0.05078,21.77
$MAG,30394.365,-0.466,-0.565,-0.163,20.5
$IMU,30394.366,7.019,10.742,-9.887,0.11181,1.04248,0.04980,21.77
$IMU,30394.369,7.385,12.329,-10.681,0.08740,1.04687,0.03759,21.77
$IMU,30394.371,7.995,13.427,-11.474,0.07373,1.04296,0.02148,21.77
$IMU,30394.373,8.605,13.366,-12.268,0.05859,1.03955,0.00537,21.77
$MAG,30394.375,-0.469,-0.561,-0.160,20.5
$IMU,30394.376,9.399,12.634,-12.634,0.04589,1.03222,-0.00488,21.77
$IMU,30394.378,10.314,11.413,-12.634,0.03808,1.03271,-0.00146,21.77
$IMU,30394.380,10.986,9.399,-11.901,0.02441,1.03613,0.00537,21.79
$IMU,30394.383,11.718,6.286,-10.559,0.01904,1.03417,0.01074,21.79
$BARO,30394.385,86024.27,22.41
$IMU,30394.385,11.657,3.173,-8.728,0.01806,1.03125,0.00927,21.79
$MAG,30394.386,-0.474,-0.562,-0.159,20.5
$IMU,30394.388,10.437,1.159,-6.652,0.02539,1.02490,0.00830,21.79
$IMU,30394.390,8.911,-0.305,-4.577,0.03564,1.01562,0.00585,21.79
$IMU,30394.392,7.019,-1.281,-2.624,0.03564,1.01025,0.01074,21.79
$IMU,30394.395,5.126,-1.403,-0.610,0.03759,1.00488,0.01953,21.79
$MAG,30394.396,-0.474,-0.559,-0.157,20.8
$IMU,30394.397,3.356,-0.976,1.342,0.04296,0.99707,0.03173,21.79
$IMU,30394.399,1.403,-0.854,3.295,0.04394,0.99511,0.03515,21.77
$IMU,30394.402,-0.976,-0.427,5.065,0.04150,0.99414,0.03613,21.77
$IMU,30394.404,-4.028,-0.610,6.225,0.04150,0.99511,0.02539,21.77
$MAG,30394.406,-0.465,-0.559,-0.156,20.5
$IMU,30394.406,-7.507,-2.136,6.835,0.03222,0.99609,0.01708,21.77
$IMU,30394.409,-11.230,-4.638,6.835,0.02197,0.99853,0.00390,21.77
$IMU,30394.411,-16.113,-7.934,6.469,0.02246,0.99804,-0.01367,21.77
$IMU,30394.413,-21.179,-11.413,6.042,0.01660,0.99560,-0.02441,21.77
$MAG,30394.416,-0.471,-0.567,-0.162,20.7
$IMU,30394.416,-25.817,-14.404,5.981,0.01464,0.99316,-0.03417,21.77
$IMU,30394.418,-29.968,-17.211,6.225,0.02001,0.99072,-0.04101,21.80
$IMU,30394.420,-33.630,-19.653,6.652,0.02148,0.99072,-0.04394,21.80
$IMU,30394.423,-36.804,-22.338,7.263,0.02246,0.98876,-0.03955,21.80
$IMU,30394.425,-40.161,-25.390,7.507,0.02197,0.98535,-0.03955,21.80
$MAG,30394.426,-0.475,-0.553,-0.157,20.7
$IMU,30394.427,-43.945,-28.747,7.019,0.03222,0.97705,-0.03955,21.80
$IMU,30394.430,-47.912,-32.104,5.859,0.04736,0.97119,-0.03662,21.80
$IMU,30394.432,-50.903,-34.667,4.272,0.06298,0.96630,-0.03076,21.80
$IMU,30394.434,-52.856,-35.888,2.624,0.08007,0.96142,-0.02099,21.80
$MAG,30394.436,-0.468,-0.561,-0.166,20.7
$IMU,30394.437,-53.588,-36.071,1.525,0.09960,0.96093,-0.01269,21.80
$IMU,30394.439,-53.588,-35.400,1.037,0.11621,0.95996,0.00000,21.80
$IMU,30394.441,-53.100,-34.790,1.098,0.13378,0.96337,0.00634,21.80
$IMU,30394.444,-52.185,-34.423,1.708,0.14550,0.96777,0.00927,21.80
$MAG,30394.446,-0.466,-0.567,-0.171,20.5
$IMU,30394.446,-50.903,-33.996,2.319,0.14892,0.97509,-0.00195,21.80
$IMU,30394.449,-49.011,-32.836,2.624,0.15917,0.97802,-0.01562,21.80
$IMU,30394.451,-46.752,-30.822,2.441,0.16015,0.98730,-0.02050,21.80
$IMU,30394.453,-44.006,-27.770,1.586,0.16210,0.99365,-0.02050,21.80
$MAG,30394.456,-0.471,-0.567,-0.174,20.7
$IMU,30394.456,-40.832,-23.803,0.000,0.16699,1.00537,-0.01318,21.83
$IMU,30394.458,-37.841,-19.592,-2.258,0.16455,1.01171,0.00048,21.83
$IMU,30394.460,-35.217,-15.686,-4.943,0.16894,1.01220,0.01562,21.83
$IMU,30394.463,-32.897,-12.329,-7.751,0.16699,1.01416,0.02978,21.83
$IMU,30394.465,-30.883,-9.948,-10.620,0.17089,1.00830,0.04980,21.83
$MAG,30394.466,-0.468,-0.573,-0.178,20.7
$IMU,30394.467,-29.235,-7.934,-13.061,0.17187,0.99804,0.06884,21.83
$IMU,30394.470,-28.015,-6.347,-14.831,0.16845,0.98925,0.08300,21.83
$IMU,30394.472,-27.282,-4.333,-15.808,0.17138,0.98632,0.08789,21.83
$IMU,30394.474,-26.428,-1.525,-15.991,0.16943,0.97900,0.08349,21.79
$MAG,30394.476,-0.468,-0.565,-0.178,20.7
$IMU,30394.477,-24.841,2.380,-15.380,0.17529,0.97119,0.07080,21.79
$IMU,30394.479,-22.155,7.690,-13.977,0.17333,0.96728,0.05371,21.79
$IMU,30394.481,-17.944,13.793,-11.535,0.17871,0.96435,0.05322,21.79
$IMU,30394.484,-12.023,19.836,-8.666,0.18750,0.95996,0.06396,21.79
$MAG,30394.486,-0.459,-0.570,-0.180,20.7
$IMU,30394.486,-5.371,25.634,-5.798,0.19091,0.95214,0.07617,21.79
$BARO,30394.487,86024.93,22.41
$IMU,30394.488,-0.854,31.005,-3.845,0.19531,0.95361,0.06884,21.79
$IMU,30394.491,0.671,34.667,-2.990,0.18994,0.95751,0.05322,21.79
$IMU,30394.493,0.671,36.315,-2.929,0.17285,0.96386,0.04638,21.76
$IMU,30394.495,0.183,36.804,-2.929,0.15380,0.97656,0.05029,21.76
$MAG,30394.496,-0.472,-0.571,-0.172,20.7
$IMU,30394.498,-0.366,35.827,-2.868,0.12841,0.99072,0.05419,21.76
$IMU,30394.500,-0.305,34.484,-2.380,0.11083,1.00585,0.06250,21.76
$IMU,30394.502,0.305,33.630,-2.075,0.09765,1.02148,0.07128,21.76
$IMU,30394.505,1.403,32.836,-1.953,0.08691,1.02880,0.06494,21.76
$MAG,30394.507,-0.474,-0.579,-0.177,20.7
$IMU,30394.507,2.563,32.775,-2.014,0.07568,1.03466,0.06103,21.76
$IMU,30394.510,3.112,33.264,-2.075,0.06445,1.04443,0.05810,21.76
$IMU,30394.512,3.295,32.653,-1.953,0.05371,1.05175,0.05224,21.80
$IMU,30394.514,3.112,31.799,-1.708,0.04248,1.04980,0.03759,21.80
$MAG,30394.517,-0.466,-0.573,-0.180,20.7
$IMU,30394.517,3.051,30.883,-1.525,0.03320,1.05029,0.02343,21.80
$IMU,30394.519,3.112,29.479,-1.220,0.03076,1.05029,0.00830,21.80
$IMU,30394.521,3.479,27.709,-0.427,0.02343,1.05273,0.00292,21.80
$IMU,30394.524,4.089,26.611,0.671,0.02197,1.04833,0.00195,21.80
$IMU,30394.526,4.577,25.268,1.892,0.01464,1.04785,0.00732,21.80
$MAG,30394.527,-0.477,-0.573,-0.180,20.8
$IMU,30394.528,4.821,23.498,2.868,0.00927,1.04882,0.01562,21.80
$IMU,30394.531,4.638,22.155,3.784,0.00000,1.04980,0.02099,21.77
$IMU,30394.533,4.333,20.263,4.394,-0.00341,1.04394,0.02197,21.77
$IMU,30394.535,4.028,17.700,5.004,-0.01367,1.03613,0.01562,21.77
$MAG,30394.537,-0.472,-0.573,-0.180,20.7
$IMU,30394.538,3.906,15.808,5.493,-0.02392,1.02392,0.00000,21.77
$IMU,30394.540,4.028,13.427,5.737,-0.02050,1.01416,-0.01464,21.77
$IMU,30394.542,3.845,10.375,5.920,-0.00878,1.00292,-0.02734,21.77
$IMU,30394.545,3.479,7.080,6.103,0.00439,0.99609,-0.02832,21.77
$MAG,30394.547,-0.483,-0.573,-0.180,20.7
$IMU,30394.547,2.868,2.929,5.981,0.01220,1.00097,-0.02539,21.77
$IMU,30394.549,2.319,-1.586,5.676,0.01953,1.00439,-0.00390,21.77
$IMU,30394.552,1.708,-5.310,5.554,0.02539,1.00634,0.01513,21.77
$IMU,30394.554,1.159,-8.178,5.432,0.02050,1.00292,0.03466,21.77
$IMU,30394.556,0.549,-10.192,5.554,0.01269,0.99560,0.04443,21.77
$MAG,30394.557,-0.471,-0.565,-0.174,20.5
$IMU,30394.559,-0.061,-11.474,6.042,-0.00097,0.98730,0.04589,21.77
$IMU,30394.561,-0.549,-12.695,6.958,-0.00927,0.97949,0.04052,21.77
$IMU,30394.563,-1.159,-14.282,8.117,-0.01220,0.97167,0.03222,21.77
$IMU,30394.566,-1.892,-16.906,9.643,-0.01269,0.96435,0.01367,21.77
$MAG,30394.567,-0.468,-0.577,-0.181,20.7
$IMU,30394.568,-3.479,-20.385,11.047,0.00146,0.96289,-0.00732,21.77
$IMU,30394.570,-6.408,-24.169,11.596,0.02587,0.96972,-0.02832,21.77
$IMU,30394.573,-10.864,-28.381,11.169,0.04345,0.98046,-0.03857,21.77
$IMU,30394.575,-16.113,-32.104,10.070,0.06347,0.99023,-0.04345,21.77
$MAG,30394.577,-0.477,-0.559,-0.177,20.5
$IMU,30394.578,-21.179,-34.973,8.300,0.07421,1.00927,-0.03222,21.77
$IMU,30394.580,-25.512,-36.926,6.591,0.07861,1.02587,-0.01464,21.77
$IMU,30394.582,-29.235,-37.780,4.882,0.07714,1.02978,0.00927,21.77
$IMU,30394.585,-32.714,-37.841,3.173,0.07421,1.03222,0.03271,21.77
$MAG,30394.587,-0.469,-0.570,-0.177,20.8
$IMU,30394.587,-36.376,-37.658,1.403,0.06982,1.02539,0.04785,21.76
$BARO,30394.588,86031.44,22.41
$IMU,30394.589,-39.550,-37.780,-0.305,0.06933,1.02197,0.06640,21.76
$IMU,30394.592,-42.358,-38.085,-1.586,0.06689,1.01318,0.07666,21.76
$IMU,30394.594,-44.982,-39.184,-2.746,0.06591,1.00390,0.08105,21.76
$IMU,30394.596,-47.180,-40.344,-3.540,0.06542,0.99414,0.08251,21.76
$MAG,30394.597,-0.474,-0.567,-0.187,20.7
$IMU,30394.599,-49.133,-41.625,-4.211,0.06787,0.98242,0.07812,21.76
$IMU,30394.601,-50.781,-42.968,-5.004,0.07177,0.97705,0.07128,21.76
$IMU,30394.603,-52.124,-44.372,-6.164,0.07470,0.97705,0.06250,21.76
$IMU,30394.606,-52.856,-45.654,-7.751,0.07714,0.98828,0.05126,21.78
$MAG,30394.607,-0.466,-0.576,-0.186,20.9
$IMU,30394.608,-52.917,-46.997,-10.070,0.07812,1.00097,0.04394,21.78
$IMU,30394.610,-52.307,-48.217,-12.878,0.07470,1.01806,0.03417,21.78
$IMU,30394.613,-50.842,-48.828,-15.747,0.06738,1.03808,0.02734,21.78
$IMU,30394.615,-48.645,-48.767,-18.737,0.07031,1.05615,0.02587,21.78
$MAG,30394.617,-0.456,-0.576,-0.195,20.8
$IMU,30394.617,-45.959,-48.278,-21.667,0.07031,1.06787,0.03027,21.78
$IMU,30394.620,-43.029,-46.936,-24.108,0.07373,1.07763,0.03417,21.78
$IMU,30394.622,-40.161,-44.799,-25.817,0.07568,1.08544,0.03564,21.78
$IMU,30394.624,-37.536,-42.907,-26.855,0.07470,1.09033,0.03955,21.76
$IMU,30394.627,-35.095,-40.344,-27.282,0.06738,1.08935,0.04101,21.76
$MAG,30394.628,-0.457,-0.576,-0.186,20.7
$IMU,30394.629,-32.653,-37.719,-27.282,0.06298,1.08789,0.04541,21.76
$IMU,30394.631,-30.090,-35.095,-26.733,0.05712,1.08984,0.04150,21.76
$HUM,30394.632,40.1,22.6
$IMU,30394.634,-26.794,-31.860,-25.695,0.04833,1.09179,0.03906,21.76
$IMU,30394.636,-22.827,-28.198,-23.925,0.04345,1.08935,0.03222,21.76
$MAG,30394.638,-0.453,-0.573,-0.202,20.5
$IMU,30394.639,-18.188,-24.414,-21.667,0.03125,1.08935,0.02050,21.76
$IMU,30394.641,-13.183,-20.141,-18.554,0.02929,1.08886,0.01416,21.76
$IMU,30394.643,-7.629,-15.319,-15.014,0.02392,1.09082,0.00976,21.79
$IMU,30394.646,-1.647,-10.192,-11.291,0.01562,1.08984,0.00292,21.79
$MAG,30394.648,-0.456,-0.579,-0.195,20.7
$IMU,30394.648,3.845,-5.615,-7.751,0.01123,1.08935,0.00146,21.79
$IMU,30394.650,8.056,-1.892,-4.516,0.00537,1.08447,-0.00097,21.79
$IMU,30394.653,10.498,1.037,-1.708,-0.00341,1.08105,-0.00097,21.79
$IMU,30394.655,11.474,2.868,0.366,-0.01025,1.07861,0.00732,21.79
$IMU,30394.657,11.291,4.028,1.953,-0.02148,1.07519,0.02246,21.79
$MAG,30394.658,-0.454,-0.585,-0.198,20.7
$IMU,30394.660,10.559,4.882,3.295,-0.02978,1.07519,0.03613,21.79
$IMU,30394.662,9.277,5.737,4.455,-0.03369,1.07763,0.04687,21.82
$IMU,30394.664,8.117,6.347,5.676,-0.03466,1.08203,0.05712,21.82
$IMU,30394.667,7.324,6.774,7.080,-0.03222,1.07958,0.05908,21.82
$MAG,30394.668,-0.456,-0.579,-0.196,20.5
$IMU,30394.669,6.958,7.019,8.666,-0.02392,1.07373,0.05615,21.82
$IMU,30394.671,6.896,7.446,10.681,-0.01806,1.06103,0.05126,21.82
$IMU,30394.674,7.141,7.568,13.122,-0.00927,1.04638,0.04736,21.82
$IMU,30394.676,7.385,7.568,15.808,-0.00097,1.02880,0.04785,21.82
$IMU,30394.678,7.629,7.568,18.615,0.01074,1.01904,0.05224,21.82
$MAG,30394.678,-0.453,-0.586,-0.192,20.7
$IMU,30394.681,8.178,7.568,21.423,0.01464,1.00537,0.05712,21.77
$IMU,30394.683,8.666,7.263,24.047,0.01855,1.00390,0.06298,21.77
$IMU,30394.685,8.911,7.507,25.939,0.01806,1.00585,0.06347,21.77
$MAG,30394.688,-0.459,-0.574,-0.193,20.7
$IMU,30394.688,8.850,7.873,27.038,0.02441,1.00781,0.06884,21.77
$BARO,30394.690,86023.34,22.41
$IMU,30394.690,8.300,8.178,27.221,0.03369,1.01025,0.07226,21.77
$IMU,30394.692,7.446,8.422,26.855,0.03466,1.01123,0.07226,21.77
$IMU,30394.695,6.469,8.605,25.939,0.03613,1.00585,0.06884,21.77
$IMU,30394.697,5.249,8.544,24.719,0.03759,0.99951,0.06494,21.77
$MAG,30394.698,-0.468,-0.580,-0.192,20.8
$IMU,30394.699,4.211,7.751,23.132,0.03515,0.98730,0.06250,21.78
$IMU,30394.702,2.746,7.019,21.484,0.03125,0.97460,0.05566,21.78
$IMU,30394.704,0.549,5.432,19.775,0.03027,0.95996,0.04492,21.78
$IMU,30394.707,-2.258,3.417,18.188,0.03027,0.94726,0.03466,21.78
$MAG,30394.708,-0.460,-0.576,-0.190,20.7
$IMU,30394.709,-5.004,0.976,16.723,0.02294,0.94433,0.03271,21.78
$IMU,30394.711,-7.507,-2.014,15.502,0.01660,0.93945,0.03320,21.78
$IMU,30394.714,-9.399,-4.882,14.404,0.01269,0.94091,0.04052,21.78
$IMU,30394.716,-10.864,-7.385,13.732,0.00878,0.93457,0.05029,21.78
$MAG,30394.718,-0.465,-0.582,-0.187,20.7
$IMU,30394.718,-12.207,-9.765,13.061,0.00878,0.93115,0.06494,21.79
$IMU,30394.721,-13.488,-11.413,12.573,0.01562,0.92236,0.07226,21.79
$IMU,30394.723,-15.136,-13.000,11.901,0.03076,0.91357,0.06738,21.79
$IMU,30394.725,-17.517,-14.465,10.742,0.04736,0.90722,0.05468,21.79
$MAG,30394.728,-0.462,-0.580,-0.193,20.7
$IMU,30394.728,-20.141,-16.113,9.155,0.05908,0.90136,0.04345,21.79
$IMU,30394.730,-21.972,-18.493,7.141,0.06835,0.89794,0.03076,21.79
$IMU,30394.732,-23.193,-21.057,4.882,0.07861,0.88964,0.02880,21.79
$IMU,30394.735,-23.925,-23.315,2.746,0.08984,0.89013,0.03173,21.79
$IMU,30394.737,-24.230,-24.780,0.732,0.08837,0.88916,0.04736,21.80
$MAG,30394.738,-0.471,-0.592,-0.198,20.7
$IMU,30394.739,-23.986,-25.695,-1.098,0.09423,0.89746,0.07080,21.80
$IMU,30394.742,-23.315,-26.062,-2.929,0.09277,0.90527,0.08935,21.80
$IMU,30394.744,-22.338,-25.878,-4.638,0.09472,0.91894,0.10351,21.80
$IMU,30394.746,-21.118,-25.756,-6.530,0.09765,0.92773,0.10986,21.80
$MAG,30394.748,-0.460,-0.576,-0.196,20.7
$IMU,30394.749,-20.202,-25.451,-8.300,0.10839,0.93701,0.11328,21.80
$IMU,30394.751,-19.348,-25.268,-9.887,0.11474,0.93554,0.11474,21.80
$IMU,30394.753,-18.615,-25.024,-11.291,0.12939,0.93457,0.11621,21.80
$IMU,30394.756,-17.944,-24.414,-12.390,0.14404,0.92578,0.11523,21.75
$IMU,30394.758,-17.395,-23.681,-13.244,0.15478,0.92382,0.11279,21.75
$MAG,30394.759,-0.462,-0.585,-0.201,20.7
$IMU,30394.760,-16.967,-22.644,-13.793,0.16796,0.92675,0.10546,21.75
$IMU,30394.763,-17.150,-21.362,-13.977,0.17285,0.93896,0.09326,21.75
$IMU,30394.765,-17.700,-19.958,-13.793,0.17187,0.95947,0.07861,21.75
$IMU,30394.768,-18.432,-18.676,-13.000,0.16113,0.98046,0.07666,21.75
$MAG,30394.769,-0.463,-0.583,-0.202,20.7
$IMU,30394.770,-19.042,-17.333,-11.718,0.15087,1.00878,0.07714,21.75
$IMU,30394.772,-19.531,-16.052,-10.314,0.14501,1.03759,0.08886,21.75
$IMU,30394.775,-19.836,-14.770,-8.605,0.13476,1.06738,0.10742,21.78
$IMU,30394.777,-20.019,-14.038,-7.080,0.12353,1.09326,0.11669,21.78
$MAG,30394.779,-0.462,-0.594,-0.202,20.7
$IMU,30394.779,-20.263,-13.488,-5.676,0.11621,1.11035,0.12304,21.78
$IMU,30394.782,-20.446,-13.427,-4.699,0.10791,1.11816,0.12011,21.78
$IMU,30394.784,-20.141,-13.793,-4.089,0.11035,1.11474,0.11621,21.78
$IMU,30394.786,-19.714,-13.854,-3.784,0.11962,1.10839,0.10986,21.78
$MAG,30394.789,-0.451,-0.586,-0.196,20.7
$IMU,30394.789,-19.104,-13.671,-3.601,0.12939,1.09375,0.10156,21.78
$BARO,30394.791,86026.73,22.40
$IMU,30394.791,-17.883,-13.366,-3.479,0.13769,1.07812,0.09716,21.78
$IMU,30394.793,-15.625,-12.390,-3.112,0.14697,1.05712,0.09619,21.83
$IMU,30394.796,-13.061,-10.925,-2.502,0.15283,1.04638,0.09423,21.83
$IMU,30394.798,-10.192,-9.033,-1.525,0.15234,1.03466,0.08300,21.83
$MAG,30394.799,-0.457,-0.577,-0.210,20.5
$IMU,30394.800,-7.385,-6.713,-0.488,0.14404,1.02783,0.06982,21.83
$IMU,30394.803,-4.638,-4.211,0.549,0.13623,1.02783,0.06152,21.83
$IMU,30394.805,-1.831,-1.464,1.708,0.12451,1.03125,0.05761,21.83
$IMU,30394.807,1.159,1.586,2.685,0.11279,1.03808,0.04931,21.83
$MAG,30394.809,-0.454,-0.576,-0.211,20.7
$IMU,30394.810,4.028,4.577,3.662,0.09375,1.05517,0.04931,21.83
$IMU,30394.812,7.080,7.507,4.211,0.07177,1.06591,0.04199,21.81
$IMU,30394.814,9.826,10.314,4.577,0.04687,1.08105,0.03613,21.81
$IMU,30394.817,12.145,12.817,4.455,0.02783,1.08691,0.03857,21.81
$MAG,30394.819,-0.456,-0.579,-0.199,20.5
$IMU,30394.819,14.160,14.831,4.089,0.01123,1.08886,0.03759,21.81
$IMU,30394.821,15.502,16.235,3.356,0.00195,1.08789,0.03955,21.81
$IMU,30394.824,15.808,17.333,2.319,-0.00146,1.07373,0.04199,21.81
$IMU,30394.826,15.563,17.944,1.098,-0.00683,1.06054,0.04785,21.81
$IMU,30394.828,14.770,18.005,-0.366,-0.00195,1.04199,0.05078,21.81
$MAG,30394.829,-0.462,-0.577,-0.196,20.7
$IMU,30394.831,13.488,17.761,-2.014,-0.00439,1.03076,0.05468,21.84
$IMU,30394.833,11.657,17.456,-3.540,-0.00341,1.01708,0.05664,21.84
$IMU,30394.836,9.521,17.089,-5.004,-0.00146,0.99804,0.05712,21.84
$IMU,30394.838,7.568,16.845,-6.225,0.00390,0.97753,0.05957,21.84
$MAG,30394.839,-0.456,-0.594,-0.202,20.7
$IMU,30394.840,5.981,16.784,-7.080,-0.00146,0.96044,0.06396,21.84
$IMU,30394.843,4.760,17.089,-7.690,-0.00585,0.94677,0.07031,21.84
$IMU,30394.845,3.906,17.333,-7.873,-0.01269,0.93261,0.06445,21.84
$IMU,30394.847,3.356,17.822,-7.507,-0.02197,0.91943,0.06054,21.84
$MAG,30394.849,-0.454,-0.583,-0.199,20.7
$IMU,30394.850,3.234,18.127,-6.713,-0.02294,0.91015,0.05224,21.77
$IMU,30394.852,3.051,18.066,-5.493,-0.03076,0.90527,0.04492,21.77
$IMU,30394.854,2.746,17.761,-3.967,-0.04101,0.90576,0.03906,21.77
$IMU,30394.857,2.197,17.211,-2.441,-0.04443,0.91357,0.03222,21.77
$MAG,30394.859,-0.459,-0.586,-0.208,20.5
$IMU,30394.859,1.525,16.235,-1.098,-0.04687,0.92675,0.02929,21.77
$IMU,30394.861,0.671,14.648,-0.549,-0.04052,0.94677,0.03369,21.77
$IMU,30394.864,-0.183,12.390,-1.159,-0.03466,0.96435,0.03613,21.77
$IMU,30394.866,-0.976,9.460,-3.051,-0.02246,0.97509,0.04541,21.77
$IMU,30394.868,-1.525,5.859,-5.859,-0.01513,0.98388,0.05029,21.78
$MAG,30394.870,-0.456,-0.591,-0.202,20.5
$IMU,30394.871,-2.136,2.502,-8.911,-0.00732,0.97802,0.05761,21.78
$IMU,30394.873,-2.746,-0.549,-11.962,0.00000,0.97167,0.06201,21.78
$IMU,30394.875,-3.356,-3.051,-14.709,0.00927,0.96435,0.06396,21.78
$IMU,30394.878,-3.845,-4.577,-16.723,0.02197,0.95703,0.06396,21.78
$MAG,30394.880,-0.448,-0.588,-0.201,20.8
$IMU,30394.880,-4.089,-5.798,-17.883,0.03222,0.94873,0.06738,21.78
$IMU,30394.882,-4.028,-6.408,-18.310,0.04589,0.94775,0.06542,21.78
$IMU,30394.885,-4.089,-6.530,-17.883,0.05761,0.95019,0.06835,21.78
$IMU,30394.887,-3.967,-6.835,-16.845,0.06250,0.95605,0.07031,21.81
$IMU,30394.889,-3.662,-6.958,-15.319,0.06738,0.96191,0.07128,21.81
$MAG,30394.890,-0.451,-0.586,-0.204,20.7
$IMU,30394.892,-3.295,-7.080,-13.305,0.06738,0.96679,0.07861,21.81
$BARO,30394.893,86028.46,22.41
$IMU,30394.894,-2.746,-7.263,-10.864,0.07080,0.97607,0.08203,21.81
$IMU,30394.897,-2.136,-7.202,-8.422,0.07275,0.98681,0.08496,21.81
$IMU,30394.899,-1.647,-7.019,-5.920,0.07226,1.00292,0.08544,21.81
$MAG,30394.900,-0.453,-0.579,-0.202,20.5
$IMU,30394.901,-1.342,-6.652,-3.784,0.06982,1.01367,0.08447,21.81
$IMU,30394.904,-0.854,-6.530,-2.075,0.06884,1.02099,0.08300,21.81
$IMU,30394.906,0.183,-6.469,-0.854,0.07373,1.02929,0.07666,21.82
$IMU,30394.908,1.342,-6.469,-0.183,0.07470,1.02587,0.06542,21.82
$MAG,30394.910,-0.450,-0.585,-0.208,20.8
$IMU,30394.911,2.441,-6.652,-0.061,0.08056,1.02490,0.05273,21.82
$IMU,30394.913,3.784,-6.774,-0.183,0.08105,1.02636,0.04248,21.82
$IMU,30394.915,5.554,-7.019,-0.488,0.08349,1.02148,0.03906,21.82
$IMU,30394.918,7.507,-7.202,-0.610,0.08056,1.01953,0.03613,21.82
$MAG,30394.920,-0.454,-0.583,-0.201,20.8
$IMU,30394.920,9.643,-6.958,-0.427,0.07421,1.00878,0.04052,21.82
$IMU,30394.922,11.718,-6.347,0.183,0.06591,0.99902,0.04736,21.82
$IMU,30394.925,13.854,-5.126,1.403,0.05908,0.98779,0.05957,21.78
$IMU,30394.927,15.747,-2.990,2.929,0.05175,0.97607,0.06689,21.78
$IMU,30394.929,17.639,-0.427,4.821,0.04589,0.96142,0.07275,21.78
$MAG,30394.930,-0.462,-0.573,-0.204,20.5
$IMU,30394.932,19.348,2.441,6.958,0.04101,0.94873,0.07714,21.78
$IMU,30394.934,20.996,5.310,9.033,0.03515,0.93798,0.07519,21.78
$IMU,30394.936,22.338,7.873,10.925,0.02441,0.93359,0.07080,21.78
$IMU,30394.939,23.925,9.460,12.878,-0.00244,0.93261,0.07031,21.78
$MAG,30394.940,-0.448,-0.580,-0.192,20.7
$IMU,30394.941,25.085,9.582,14.709,-0.02148,0.94970,0.06982,21.78
$IMU,30394.943,25.024,8.605,15.747,-0.04052,0.97167,0.06640,21.83
$IMU,30394.946,24.047,6.286,16.235,-0.05761,0.99169,0.06005,21.83
$IMU,30394.948,22.766,3.356,16.174,-0.07275,1.00732,0.05761,21.83
$MAG,30394.950,-0.453,-0.583,-0.196,20.7
$IMU,30394.950,21.423,0.122,15.686,-0.08691,1.02197,0.05908,21.83
$IMU,30394.953,20.141,-3.112,15.563,-0.09667,1.02978,0.06445,21.83
$IMU,30394.955,19.531,-5.920,15.625,-0.10253,1.02880,0.06982,21.83
$IMU,30394.957,19.836,-9.155,15.991,-0.09863,1.02636,0.07617,21.83
$MAG,30394.960,-0.457,-0.582,-0.192,20.7
$IMU,30394.960,18.859,-12.084,16.235,-0.09521,1.02050,0.06738,21.83
$IMU,30394.962,15.808,-14.587,16.418,-0.08740,1.01269,0.05517,21.83
$IMU,30394.965,11.962,-17.700,16.418,-0.07470,1.00732,0.03857,21.83
$IMU,30394.967,8.178,-21.118,16.235,-0.05761,1.00097,0.03417,21.83
$IMU,30394.969,4.577,-24.719,16.052,-0.03759,0.98876,0.03808,21.83
$MAG,30394.970,-0.462,-0.580,-0.195,20.5
$IMU,30394.972,1.159,-27.832,16.113,-0.01025,0.97509,0.04931,21.83
$IMU,30394.974,-2.136,-30.334,16.723,0.00976,0.96289,0.06250,21.83
$IMU,30394.976,-5.065,-31.982,17.761,0.03662,0.95654,0.07421,21.83
$IMU,30394.979,-7.263,-33.203,19.042,0.05810,0.95019,0.08300,21.83
$MAG,30394.980,-0.469,-0.580,-0.190,20.7
$IMU,30394.981,-8.911,-33.813,20.385,0.07324,0.95361,0.08544,21.79
$IMU,30394.983,-9.948,-33.935,21.606,0.09570,0.96093,0.07958,21.79
$IMU,30394.986,-10.131,-31.799,22.521,0.14941,0.95361,0.05566,21.79
$IMU,30394.988,-8.605,-24.169,22.399,0.16943,0.94433,0.04736,21.79
$IMU,30394.990,-5.065,-16.296,22.216,0.15771,0.93701,0.05175,21.79
$MAG,30394.991,-0.462,-0.582,-0.198,20.5
$IMU,30394.993,-1.403,-11.108,22.338,0.14355,0.93896,0.06298,21.79
$BARO,30394.994,86035.02,22.41
$IMU,30394.995,1.342,-8.544,22.521,0.12939,0.93750,0.07568,21.79
$IMU,30394.997,2.990,-7.080,22.277,0.11376,0.93945,0.08398,21.79
$IMU,30395.000,3.967,-6.164,21.789,0.09912,0.93945,0.08935,21.81
$MAG,30395.001,-0.460,-0.585,-0.193,20.5
$IMU,30395.002,4.150,-5.676,20.629,0.08691,0.94580,0.08886,21.81
$IMU,30395.004,4.089,-4.821,19.165,0.07910,0.95947,0.07958,21.81
$IMU,30395.007,3.967,-4.455,17.211,0.06201,0.97167,0.06738,21.81
$IMU,30395.009,3.906,-3.295,14.770,0.05810,0.98681,0.06201,21.81
$MAG,30395.011,-0.450,-0.577,-0.199,20.7
$IMU,30395.011,4.455,-2.014,12.329,0.05517,0.99609,0.05761,21.81
$IMU,30395.014,5.371,-0.915,10.131,0.05126,1.00683,0.05224,21.81
$IMU,30395.016,6.530,0.366,8.300,0.05371,1.00683,0.04736,21.81
$IMU,30395.018,7.568,1.892,6.835,0.06152,1.01171,0.04150,21.81
$MAG,30395.021,-0.456,-0.577,-0.201,20.8
$IMU,30395.021,8.666,3.173,5.676,0.06884,1.00048,0.03710,21.81
$IMU,30395.023,10.131,4.882,4.821,0.08203,0.98974,0.03857,21.81
$IMU,30395.026,11.840,6.530,4.028,0.10449,0.97998,0.04248,21.81
$IMU,30395.028,13.732,8.117,3.662,0.11328,0.96923,0.04980,21.81
$IMU,30395.030,15.563,10.620,3.601,0.12597,0.95947,0.05761,21.81
$MAG,30395.031,-0.463,-0.577,-0.187,20.7
$IMU,30395.033,17.761,13.000,3.356,0.13574,0.95996,0.06933,21.81
$IMU,30395.035,19.897,15.380,3.173,0.14599,0.96093,0.07568,21.81
$IMU,30395.037,21.789,18.188,2.807,0.15283,0.96337,0.08007,21.81
$IMU,30395.040,23.315,20.629,2.136,0.15771,0.97412,0.07617,21.81
$MAG,30395.041,-0.468,-0.579,-0.195,20.7
$IMU,30395.042,24.353,22.766,1.281,0.16699,0.98779,0.07226,21.81
$IMU,30395.044,25.024,24.780,0.488,0.17041,1.00927,0.07226,21.81
$IMU,30395.047,25.085,25.939,-0.244,0.16992,1.03222,0.06298,21.81
$IMU,30395.049,24.841,26.916,-0.915,0.17041,1.04833,0.06152,21.81
$MAG,30395.051,-0.469,-0.580,-0.186,20.7
$IMU,30395.051,24.414,27.587,-1.220,0.16796,1.06933,0.06201,21.81
$IMU,30395.054,23.986,28.137,-0.976,0.15673,1.08447,0.07128,21.81
$IMU,30395.056,23.681,28.747,-0.732,0.14843,1.09082,0.07958,21.79
$IMU,30395.058,23.132,29.541,-0.305,0.13867,1.10644,0.08740,21.79
$MAG,30395.061,-0.463,-0.580,-0.186,20.8
$IMU,30395.061,22.155,30.822,0.244,0.13037,1.11279,0.08447,21.79
$IMU,30395.063,21.484,31.982,0.305,0.12158,1.11669,0.08447,21.79
$IMU,30395.065,20.812,32.958,0.061,0.11376,1.10937,0.08496,21.79
$IMU,30395.068,20.324,33.874,0.183,0.10595,1.09472,0.08447,21.79
$IMU,30395.070,20.080,34.484,0.610,0.10253,1.07714,0.07910,21.79
$MAG,30395.071,-0.468,-0.573,-0.198,20.7
$IMU,30395.072,20.080,34.729,1.159,0.09960,1.06054,0.07128,21.79
$IMU,30395.075,20.263,34.362,2.014,0.09082,1.04101,0.06298,21.82
$IMU,30395.077,20.507,34.118,3.173,0.08251,1.02441,0.05859,21.82
$IMU,30395.079,20.935,33.813,4.455,0.07324,1.00537,0.05908,21.82
$MAG,30395.081,-0.477,-0.576,-0.187,20.8
$IMU,30395.082,21.423,33.020,5.920,0.06054,0.99511,0.05810,21.82
$IMU,30395.084,22.033,31.616,7.385,0.05371,0.98144,0.05371,21.82
$IMU,30395.086,22.949,30.334,8.728,0.05957,0.97314,0.05224,21.82
$IMU,30395.089,24.169,28.869,9.582,0.06445,0.96777,0.05419,21.82
$MAG,30395.091,-0.475,-0.571,-0.187,20.7
$IMU,30395.091,24.963,28.259,10.009,0.06787,0.96240,0.05566,21.82
$IMU,30395.094,25.329,27.770,10.009,0.07031,0.96777,0.05078,21.82
$BARO,30395.096,86027.51,22.41
$IMU,30395.096,26.000,27.465,9.887,0.07324,0.97070,0.05273,21.82
$IMU,30395.098,26.550,27.160,9.399,0.07666,0.98046,0.05566,21.82
$MAG,30395.101,-0.465,-0.568,-0.178,20.8
$IMU,30395.101,26.184,27.221,8.850,0.06884,0.99218,0.05664,21.82
$IMU,30395.103,25.512,27.038,8.422,0.06298,0.99853,0.05273,21.82
$IMU,30395.105,25.024,26.672,8.117,0.05615,1.01074,0.04980,21.82
$IMU,30395.108,24.719,26.367,8.178,0.05078,1.01464,0.04882,21.82
$IMU,30395.110,24.597,26.123,8.483,0.04345,1.01611,0.04687,21.82
$MAG,30395.112,-0.483,-0.580,-0.174,20.7
$IMU,30395.112,24.475,26.184,9.216,0.03320,1.01171,0.05126,21.81
$IMU,30395.115,24.719,26.062,10.192,0.03076,1.00976,0.05029,21.81
$IMU,30395.117,25.024,26.062,11.413,0.02587,1.00244,0.04785,21.81
$IMU,30395.119,25.268,26.062,12.573,0.02099,1.00097,0.04785,21.81
$MAG,30395.122,-0.475,-0.565,-0.178,20.7
$IMU,30395.122,25.634,26.000,13.793,0.02050,0.99560,0.04687,21.81
$IMU,30395.124,26.062,25.634,15.014,0.02001,0.98193,0.04150,21.81
$IMU,30395.126,26.672,25.207,15.991,0.02001,0.97265,0.03515,21.81
$IMU,30395.129,27.282,25.268,16.723,0.02929,0.97021,0.01904,21.81
$IMU,30395.131,29.663,27.221,16.540,0.04931,0.97216,0.00634,21.81
$MAG,30395.132,-0.481,-0.567,-0.184,20.7
$IMU,30395.133,33.386,30.883,15.686,0.06201,0.97900,0.01367,21.81
$IMU,30395.136,35.827,33.508,14.404,0.06152,0.97314,0.01464,21.81
$IMU,30395.138,36.987,35.034,12.695,0.06054,0.96533,0.00732,21.81
$IMU,30395.140,37.658,35.766,10.620,0.05859,0.96777,0.00390,21.81
$MAG,30395.142,-0.481,-0.555,-0.171,20.7
$IMU,30395.143,37.902,35.278,8.239,0.05517,0.96484,0.00341,21.81
$IMU,30395.145,37.963,33.447,5.859,0.04736,0.96484,0.00439,21.81
$IMU,30395.147,38.024,30.456,3.540,0.04785,0.96386,-0.00048,21.81
$IMU,30395.150,37.963,26.367,1.342,0.04687,0.96484,-0.00439,21.80
$MAG,30395.152,-0.478,-0.559,-0.172,20.7
$IMU,30395.152,37.475,21.484,-0.610,0.05712,0.97070,-0.00830,21.80
$IMU,30395.155,36.865,16.418,-1.953,0.06396,0.97509,-0.00781,21.80
$IMU,30395.157,36.132,11.840,-2.624,0.07128,0.98046,-0.01464,21.80
$IMU,30395.159,35.766,8.239,-2.563,0.08593,0.99023,-0.01757,21.80
$MAG,30395.162,-0.481,-0.558,-0.172,20.5
$IMU,30395.162,36.132,5.859,-1.953,0.09765,0.99511,-0.01513,21.80
$IMU,30395.164,36.987,4.760,-1.098,0.10742,1.01074,-0.01904,21.80
$IMU,30395.166,37.963,4.455,0.061,0.11669,1.02783,-0.01855,21.80
$IMU,30395.169,38.574,5.249,1.342,0.12548,1.04248,-0.02148,21.80
$IMU,30395.171,38.513,6.530,2.502,0.12646,1.05468,-0.02148,21.80
$MAG,30395.172,-0.490,-0.561,-0.166,20.9
$IMU,30395.173,38.208,8.178,3.662,0.13037,1.05810,-0.02294,21.80
$IMU,30395.176,37.780,9.826,4.882,0.13183,1.07128,-0.01904,21.80
$IMU,30395.178,37.048,11.474,6.347,0.12988,1.07519,-0.02343,21.80
$IMU,30395.180,36.376,13.488,7.568,0.12695,1.07519,-0.02490,21.80
$MAG,30395.182,-0.487,-0.558,-0.159,20.7
$IMU,30395.183,35.522,15.441,8.850,0.12060,1.07324,-0.02294,21.80
$IMU,30395.185,34.667,17.333,10.070,0.11328,1.06738,-0.02246,21.80
$IMU,30395.187,33.752,19.042,10.986,0.10449,1.06250,-0.02636,21.84
$IMU,30395.190,33.020,19.836,11.413,0.09960,1.06054,-0.02880,21.84
$MAG,30395.192,-0.483,-0.556,-0.163,20.7
$IMU,30395.192,32.531,20.324,11.108,0.09570,1.05566,-0.03271,21.84
$IMU,30395.194,31.921,20.019,10.009,0.09228,1.05273,-0.04248,21.84
$BARO,30395.197,86024.27,22.41
$IMU,30395.197,30.944,18.920,8.422,0.08984,1.05224,-0.04492,21.84
$IMU,30395.199,29.357,17.456,6.164,0.08447,1.05175,-0.05224,21.84
$IMU,30395.201,27.282,15.625,3.479,0.07568,1.04785,-0.05908,21.84
$MAG,30395.202,-0.487,-0.565,-0.157,20.7
$IMU,30395.204,24.719,13.916,0.427,0.06933,1.04589,-0.06298,21.84
$IMU,30395.206,22.155,12.451,-2.380,0.05859,1.04248,-0.06689,21.79
$IMU,30395.208,19.470,10.131,-4.882,0.05517,1.04394,-0.06445,21.79
$IMU,30395.211,17.395,7.873,-6.835,0.08691,1.04150,-0.08935,21.79
$MAG,30395.212,-0.489,-0.558,-0.153,20.8
$IMU,30395.213,18.127,5.126,-5.737,0.13085,1.04248,-0.12060,21.79
$IMU,30395.215,18.493,2.136,-3.845,0.10498,1.04687,-0.09326,21.79
$IMU,30395.218,16.296,0.000,-3.295,0.08789,1.03857,-0.05419,21.79
$IMU,30395.220,12.512,-1.525,-3.540,0.07812,1.03369,-0.02685,21.79
$MAG,30395.222,-0.487,-0.552,-0.159,20.7
$IMU,30395.223,10.009,-1.586,-4.028,0.08740,1.01855,-0.03320,21.79
$IMU,30395.225,10.192,0.061,-4.333,0.10302,1.00390,-0.02783,21.84
$IMU,30395.227,10.742,2.197,-4.455,0.10839,0.99560,-0.02001,21.84
$IMU,30395.230,10.375,3.845,-4.272,0.11279,0.99169,-0.01123,21.84
$IMU,30395.232,8.972,4.882,-4.272,0.11328,0.98291,-0.01269,21.84
$MAG,30395.233,-0.495,-0.556,-0.153,20.9
$IMU,30395.234,7.202,5.554,-4.882,0.11083,0.96826,-0.01953,21.84
$IMU,30395.237,5.859,6.286,-5.920,0.10498,0.95507,-0.02880,21.84
$IMU,30395.239,5.310,6.713,-7.263,0.09033,0.95507,-0.03173,21.84
$IMU,30395.241,4.882,7.568,-8.728,0.06738,0.97460,-0.03271,21.84
$MAG,30395.243,-0.496,-0.552,-0.157,20.8
$IMU,30395.244,4.516,8.728,-10.131,0.06103,0.98779,-0.03613,21.81
$IMU,30395.246,4.089,9.948,-10.986,0.06103,1.00292,-0.03759,21.81
$IMU,30395.248,3.601,11.108,-11.413,0.06445,1.01953,-0.04394,21.81
$IMU,30395.251,2.990,11.779,-11.535,0.07177,1.02392,-0.05273,21.81
$MAG,30395.253,-0.492,-0.556,-0.150,20.7
$IMU,30395.253,2.563,12.023,-11.779,0.07324,1.03369,-0.05664,21.81
$IMU,30395.255,3.051,11.596,-12.207,0.07324,1.04248,-0.05224,21.81
$IMU,30395.258,3.967,11.047,-13.122,0.08007,1.04736,-0.04638,21.81
$IMU,30395.260,4.821,9.887,-14.953,0.08935,1.05419,-0.03320,21.81
$IMU,30395.262,5.798,7.995,-18.493,0.09765,1.05712,-0.02392,21.81
$MAG,30395.263,-0.495,-0.556,-0.147,20.7
$IMU,30395.265,6.103,5.859,-22.644,0.09667,1.05712,-0.00830,21.81
$IMU,30395.267,5.126,4.028,-26.672,0.08691,1.05126,0.00390,21.81
$IMU,30395.269,3.417,2.685,-30.212,0.07470,1.04101,0.00341,21.81
$IMU,30395.272,1.525,2.197,-33.081,0.06835,1.03759,-0.00048,21.81
$MAG,30395.273,-0.484,-0.552,-0.160,20.7
$IMU,30395.274,-0.244,1.647,-35.278,0.05810,1.03515,-0.00781,21.81
$IMU,30395.276,-1.708,1.220,-36.865,0.05371,1.03515,-0.01611,21.81
$IMU,30395.279,-2.807,0.549,-37.902,0.05615,1.04101,-0.03369,21.81
$IMU,30395.281,-2.685,-1.525,-37.841,0.19531,0.95019,-0.13427,21.84
$MAG,30395.283,-0.486,-0.552,-0.156,20.7
$IMU,30395.284,5.554,-11.596,-23.925,0.41455,0.72656,-0.37597,21.84
$IMU,30395.286,16.784,-23.986,-3.662,0.30810,0.76611,-0.32470,21.84
$IMU,30395.288,22.949,-33.996,8.483,0.21582,0.80957,-0.27490,21.84
$IMU,30395.291,26.794,-44.128,16.906,0.16210,0.82275,-0.26904,21.84
$MAG,30395.293,-0.483,-0.549,-0.157,20.7
$IMU,30395.293,30.273,-54.016,24.536,0.12744,0.82861,-0.26953,21.84
$IMU,30395.295,33.020,-62.866,31.250,0.09863,0.84375,-0.26464,21.84
$IMU,30395.298,34.179,-71.166,36.926,0.07714,0.87255,-0.25585,21.84
$BARO,30395.299,86027.85,22.41
$IMU,30395.300,33.691,-78.613,41.992,0.06298,0.90917,-0.24365,21.84
$IMU,30395.302,32.226,-85.021,45.959,0.03662,0.94873,-0.22900,21.84
$MAG,30395.303,-0.477,-0.550,-0.150,20.9
$IMU,30395.305,31.127,-89.355,48.034,0.02099,0.99902,-0.20996,21.84
$IMU,30395.307,30.212,-92.041,47.973,0.02929,1.03027,-0.18847,21.84
$IMU,30395.309,28.930,-94.238,46.691,0.03759,1.06103,-0.17382,21.84
$IMU,30395.312,26.611,-95.642,44.128,0.04443,1.09228,-0.15771,21.84
$MAG,30395.313,-0.483,-0.544,-0.145,20.7
$IMU,30395.314,23.254,-96.679,40.771,0.04833,1.11669,-0.14062,21.84
$IMU,30395.316,18.737,-97.534,36.193,0.03759,1.15625,-0.11718,21.84
$IMU,30395.319,13.244,-97.717,29.663,0.02099,1.19873,-0.10253,21.84
$IMU,30395.321,7.324,-97.045,21.240,-0.00439,1.23974,-0.08447,21.84
$MAG,30395.323,-0.480,-0.553,-0.145,20.7
$IMU,30395.323,1.831,-95.275,11.108,-0.02099,1.26513,-0.07568,21.84
$IMU,30395.326,-2.807,-92.468,0.183,-0.01708,1.27587,-0.07324,21.84
$IMU,30395.328,-6.591,-88.500,-10.314,-0.00390,1.27636,-0.07617,21.84
$IMU,30395.330,-9.460,-83.801,-19.714,0.01074,1.25830,-0.07421,21.84
$VBAT,30395.330,4.121
$MAG,30395.333,-0.472,-0.544,-0.142,20.8
$IMU,30395.333,-11.657,-78.979,-27.893,0.02929,1.22607,-0.07470,21.84
$IMU,30395.335,-13.305,-74.340,-34.606,0.05371,1.18750,-0.07519,21.84
$IMU,30395.337,-14.282,-70.129,-39.978,0.07861,1.13525,-0.07812,21.82
$IMU,30395.340,-14.465,-66.528,-44.006,0.10156,1.08105,-0.07763,21.82
$IMU,30395.342,-13.916,-63.354,-46.447,0.12353,1.03076,-0.08251,21.82
$MAG,30395.343,-0.472,-0.547,-0.132,20.7
$IMU,30395.344,-12.939,-60.852,-47.546,0.13232,0.98828,-0.08349,21.82
$IMU,30395.347,-11.657,-59.082,-47.180,0.13720,0.95214,-0.08789,21.82
$IMU,30395.349,-10.314,-58.166,-45.715,0.13330,0.92626,-0.09082,21.82
$IMU,30395.352,-9.033,-57.861,-43.457,0.12597,0.90673,-0.09326,21.82
$MAG,30395.353,-0.468,-0.555,-0.139,20.7
$IMU,30395.354,-8.178,-58.288,-40.771,0.12207,0.89062,-0.09179,21.82
$IMU,30395.356,-7.812,-59.509,-37.658,0.12402,0.87304,-0.08886,21.80
$IMU,30395.359,-8.483,-60.791,-34.484,0.12402,0.85644,-0.08496,21.80
$IMU,30395.361,-10.131,-62.133,-31.372,0.13476,0.83740,-0.07666,21.80
$IMU,30395.363,-12.634,-63.781,-27.954,0.13867,0.83056,-0.06835,21.80
$MAG,30395.364,-0.456,-0.543,-0.132,20.9
$IMU,30395.366,-15.869,-65.307,-24.230,0.13671,0.81884,-0.05664,21.80
$IMU,30395.368,-19.348,-66.955,-20.019,0.13671,0.81689,-0.04492,21.80
$IMU,30395.370,-22.827,-68.542,-15.319,0.13525,0.82324,-0.03320,21.80
$IMU,30395.373,-26.000,-69.885,-10.620,0.13183,0.84033,-0.02148,21.80
$MAG,30395.374,-0.448,-0.549,-0.135,20.8
$IMU,30395.375,-28.564,-70.739,-5.859,0.13330,0.86425,-0.00683,21.79
$IMU,30395.377,-30.944,-71.105,-1.831,0.12890,0.89306,0.00878,21.79
$IMU,30395.380,-33.142,-70.861,1.220,0.12011,0.93212,0.02343,21.79
$IMU,30395.382,-35.522,-70.129,3.051,0.10742,0.96826,0.03759,21.79
$MAG,30395.384,-0.456,-0.559,-0.135,20.7
$IMU,30395.384,-37.902,-68.481,3.845,0.09326,1.00781,0.04931,21.79
$IMU,30395.387,-40.039,-66.406,3.662,0.08593,1.04150,0.06152,21.79
$IMU,30395.389,-41.748,-63.598,2.868,0.07861,1.06738,0.07031,21.79
$IMU,30395.391,-42.846,-60.424,1.892,0.07568,1.08984,0.07763,21.79
$MAG,30395.394,-0.448,-0.561,-0.144,20.7
$IMU,30395.394,-42.968,-56.640,0.732,0.07226,1.10205,0.08251,21.76
$IMU,30395.396,-41.809,-52.856,-0.488,0.07617,1.11181,0.08447,21.76
$IMU,30395.398,-39.489,-48.522,-2.014,0.06640,1.14257,0.09472,21.76
$BARO,30395.401,86020.25,22.41
$IMU,30395.401,-38.085,-43.029,-7.812,0.00146,1.30615,0.15234,21.76
$IMU,30395.403,-39.550,-36.682,-22.155,-0.02294,1.43505,0.18896,21.76
$MAG,30395.404,-0.439,-0.564,-0.150,20.8
$IMU,30395.405,-42.480,-30.334,-39.855,-0.00976,1.47900,0.18994,21.76
$IMU,30395.408,-45.654,-23.986,-57.067,-0.00781,1.48583,0.18701,21.76
$IMU,30395.410,-48.156,-17.517,-72.265,-0.01318,1.46386,0.18066,21.76
$IMU,30395.413,-49.499,-10.253,-84.838,-0.03222,1.43066,0.17138,21.82
$MAG,30395.414,-0.433,-0.570,-0.151,20.7
$IMU,30395.415,-48.828,-3.112,-94.604,-0.04101,1.36572,0.15576,21.82
$IMU,30395.417,-46.142,4.028,-100.708,-0.04394,1.29833,0.13623,21.82
$IMU,30395.420,-41.625,11.352,-104.370,-0.05273,1.24951,0.10986,21.82
$IMU,30395.422,-35.766,18.432,-107.055,-0.06005,1.21728,0.07714,21.82
$MAG,30395.424,-0.426,-0.561,-0.163,20.9
$IMU,30395.424,-28.320,24.902,-109.619,-0.06103,1.17773,0.04101,21.82
$IMU,30395.427,-19.287,32.104,-113.159,-0.08837,1.16015,0.01269,21.82
$IMU,30395.429,-9.033,39.916,-119.262,-0.17919,1.18457,0.01953,21.82
$IMU,30395.431,-3.540,42.541,-127.685,-0.24316,1.20410,0.02246,21.85
$MAG,30395.434,-0.420,-0.579,-0.151,20.9
$IMU,30395.434,-2.807,43.151,-136.413,-0.19140,1.18457,-0.00244,21.85
$IMU,30395.436,-2.075,46.142,-143.371,-0.11181,1.14111,-0.02050,21.85
$IMU,30395.438,-0.488,49.804,-148.071,-0.03662,1.08886,-0.03955,21.85
$IMU,30395.441,2.441,53.771,-149.902,0.01660,1.03125,-0.06005,21.85
$IMU,30395.443,6.286,57.067,-148.315,0.05419,0.97314,-0.08496,21.85
$MAG,30395.444,-0.403,-0.568,-0.163,20.7
$IMU,30395.445,10.559,58.593,-143.798,0.06884,0.92480,-0.10986,21.85
$IMU,30395.448,14.770,58.349,-136.474,0.08398,0.88574,-0.13427,21.85
$IMU,30395.450,19.653,57.006,-126.586,0.09521,0.84472,-0.15771,21.82
$IMU,30395.452,24.719,54.992,-114.562,0.10156,0.82128,-0.17041,21.82
$MAG,30395.454,-0.390,-0.567,-0.153,20.8
$IMU,30395.455,29.052,51.940,-100.524,0.19091,0.79052,-0.26464,21.82
$IMU,30395.457,30.456,42.602,-84.533,0.36425,0.73828,-0.35546,21.82
$IMU,30395.459,24.597,32.897,-66.589,0.26025,0.66015,-0.24267,21.82
$IMU,30395.462,17.578,24.169,-48.767,0.04833,0.64746,-0.18603,21.82
$MAG,30395.464,-0.393,-0.561,-0.153,20.9
$IMU,30395.464,12.145,13.610,-34.423,-0.10498,0.69824,-0.16162,21.82
$IMU,30395.466,4.882,2.380,-24.536,-0.17138,0.76513,-0.13330,21.82
$IMU,30395.469,-4.943,-8.483,-18.005,-0.14941,0.81787,-0.07763,21.85
$IMU,30395.471,-14.648,-16.052,-13.244,-0.06347,0.81396,0.02392,21.85
$IMU,30395.473,-21.301,-17.639,-9.399,0.00390,0.82470,0.11621,21.85
$MAG,30395.474,-0.393,-0.564,-0.159,20.7
$IMU,30395.476,-24.658,-14.953,-8.972,0.02294,0.87060,0.16162,21.85
$IMU,30395.478,-26.062,-9.826,-10.742,0.03369,0.87060,0.20068,21.85
$IMU,30395.481,-26.672,-3.051,-12.268,0.00683,0.88720,0.19970,21.85
$IMU,30395.483,-26.916,2.990,-13.061,-0.02539,0.90917,0.16845,21.85
$MAG,30395.485,-0.391,-0.570,-0.159,20.8
$IMU,30395.485,-27.221,7.568,-12.756,-0.05566,0.93310,0.12402,21.85
$IMU,30395.488,-27.465,9.887,-11.169,-0.07373,0.95996,0.07324,21.85
$IMU,30395.490,-27.465,11.047,-8.239,-0.07763,0.96679,0.04052,21.85
$IMU,30395.492,-26.611,10.986,-4.333,-0.07373,0.97314,0.01269,21.85
$MAG,30395.495,-0.388,-0.567,-0.165,20.7
$IMU,30395.495,-24.963,10.986,0.366,-0.06738,0.98291,-0.00390,21.85
$IMU,30395.497,-22.277,10.375,4.760,-0.06201,1.00048,-0.01464,21.85
$IMU,30395.499,-18.859,9.277,8.728,-0.06201,1.00585,-0.01074,21.85
$BARO,30395.502,86026.07,22.41
$IMU,30395.502,-14.770,8.972,12.634,-0.04687,0.99902,0.00390,21.85
$IMU,30395.504,-10.437,9.887,16.601,-0.01953,0.98779,0.03125,21.85
$MAG,30395.505,-0.384,-0.568,-0.154,20.7
$IMU,30395.506,-5.920,11.657,20.690,-0.01416,0.99218,0.02343,21.83
$IMU,30395.509,-1.525,13.305,24.414,-0.01318,0.99169,0.01904,21.83
$IMU,30395.511,2.380,14.282,27.404,-0.02392,0.99316,-0.00439,21.83
$IMU,30395.513,5.432,13.916,29.724,-0.03662,0.99316,-0.01660,21.83
$MAG,30395.515,-0.390,-0.568,-0.160,20.7
$IMU,30395.516,7.812,12.634,31.616,-0.03808,0.99023,-0.02050,21.83
$IMU,30395.518,9.643,10.986,33.142,-0.04492,0.98388,-0.04980,21.83
$IMU,30395.520,11.596,7.568,34.606,-0.03613,0.96679,-0.08447,21.83
$IMU,30395.523,14.038,3.417,37.048,-0.00927,0.94824,-0.11669,21.83
$MAG,30395.525,-0.397,-0.573,-0.162,20.8
$IMU,30395.525,16.296,-1.708,40.832,0.00732,0.94140,-0.13281,21.85
$IMU,30395.527,17.456,-6.774,44.311,-0.01269,0.96093,-0.09667,21.85
$IMU,30395.530,17.456,-11.474,46.081,-0.03564,0.98486,-0.08105,21.85
$IMU,30395.532,17.272,-16.906,45.959,-0.05566,1.01757,-0.07861,21.85
$IMU,30395.534,16.967,-23.010,43.945,-0.06347,1.04492,-0.06103,21.85
$MAG,30395.535,-0.396,-0.576,-0.160,20.7
$IMU,30395.537,16.662,-27.770,40.344,-0.05957,1.07470,-0.02099,21.85
$IMU,30395.539,15.625,-31.188,35.949,-0.06054,1.09912,0.00439,21.85
$IMU,30395.542,12.695,-33.752,31.616,-0.05761,1.09716,0.02734,21.85
$IMU,30395.544,7.690,-35.278,28.686,-0.05908,1.09277,0.02490,21.84
$MAG,30395.545,-0.399,-0.565,-0.156,20.9
$IMU,30395.546,1.892,-36.315,26.916,-0.05224,1.08837,0.02880,21.84
$IMU,30395.549,-4.272,-35.888,26.062,-0.04638,1.07666,0.03125,21.84
$IMU,30395.551,-10.498,-34.851,26.000,-0.03955,1.06005,0.03955,21.84
$IMU,30395.553,-15.991,-33.508,26.550,-0.03369,1.03857,0.03857,21.84
$MAG,30395.555,-0.393,-0.574,-0.159,20.8
$IMU,30395.556,-20.874,-31.738,27.526,-0.02246,1.01904,0.02929,21.84
$IMU,30395.558,-24.230,-30.029,28.930,-0.00390,0.99023,0.02050,21.84
$IMU,30395.560,-25.878,-27.893,30.883,0.00927,0.96923,-0.00048,21.84
$IMU,30395.563,-26.000,-26.184,33.081,0.01708,0.95751,-0.02636,21.83
$MAG,30395.565,-0.409,-0.565,-0.153,20.8
$IMU,30395.565,-25.207,-25.207,35.278,0.02636,0.96240,-0.04443,21.83
$IMU,30395.567,-23.986,-24.536,37.170,0.01953,0.96630,-0.06152,21.83
$IMU,30395.570,-22.888,-24.597,38.818,0.01513,0.97412,-0.06738,21.83
$IMU,30395.572,-21.972,-24.719,40.161,-0.00048,0.98925,-0.06005,21.83
$IMU,30395.574,-21.362,-24.353,41.076,-0.01464,1.00341,-0.06201,21.83
$MAG,30395.575,-0.399,-0.568,-0.162,20.8
$IMU,30395.577,-20.874,-24.414,41.198,-0.02587,1.01171,-0.05859,21.83
$IMU,30395.579,-20.507,-24.291,40.527,-0.03271,1.02490,-0.04541,21.83
$IMU,30395.581,-20.385,-23.742,38.696,-0.03417,1.03417,-0.02832,21.83
$IMU,30395.584,-20.446,-23.010,36.254,-0.04003,1.03564,-0.01367,21.83
$MAG,30395.585,-0.399,-0.579,-0.163,20.8
$IMU,30395.586,-20.507,-21.789,33.447,-0.03222,1.03271,-0.00537,21.83
$IMU,30395.588,-20.202,-20.019,30.578,-0.02636,1.02734,0.00976,21.83
$IMU,30395.591,-19.470,-17.761,27.648,-0.01708,1.02001,0.02197,21.83
$IMU,30395.593,-18.676,-14.831,24.902,-0.01806,1.01562,0.03759,21.83
$MAG,30395.595,-0.406,-0.574,-0.162,20.7
$IMU,30395.595,-18.066,-12.023,22.277,-0.01416,1.01464,0.03369,21.83
$IMU,30395.598,-17.639,-10.009,20.019,-0.01171,1.02539,0.02392,21.83
$IMU,30395.600,-17.761,-8.728,17.822,-0.01074,1.03417,0.02001,21.84
$IMU,30395.602,-17.883,-7.995,15.808,-0.00732,1.03466,0.02587,21.84
$BARO,30395.604,86031.00,22.41
$MAG,30395.605,-0.400,-0.579,-0.162,20.9
$IMU,30395.605,-18.310,-6.958,13.793,-0.00244,1.03320,0.03173,21.84
$IMU,30395.607,-18.798,-5.676,12.023,-0.00195,1.02685,0.03710,21.84
$IMU,30395.610,-19.409,-4.516,10.437,-0.00048,1.02294,0.03808,21.84
$IMU,30395.612,-20.080,-3.356,9.155,0.00488,1.01855,0.03662,21.84
$IMU,30395.614,-20.629,-2.441,7.995,0.00537,1.01806,0.03613,21.84
$MAG,30395.616,-0.412,-0.574,-0.163,20.7
$IMU,30395.617,-20.812,-2.197,6.591,0.00878,1.01367,0.03369,21.84
$IMU,30395.619,-20.935,-1.342,5.432,0.00732,1.00976,0.03076,21.83
$IMU,30395.621,-20.629,-0.366,4.455,0.01562,1.00488,0.02148,21.83
$IMU,30395.624,-19.653,0.366,3.723,0.02441,1.01318,0.00488,21.83
$MAG,30395.626,-0.412,-0.574,-0.165,20.9
$IMU,30395.626,-18.188,1.403,3.173,0.03173,1.01611,-0.01562,21.83
$IMU,30395.628,-16.052,2.258,2.807,0.02441,1.02490,-0.02099,21.83
$IMU,30395.631,-13.427,3.540,2.441,0.02001,1.04443,-0.01123,21.83
$IMU,30395.633,-10.681,5.920,2.197,0.02490,1.05517,0.00000,21.83
$IMU,30395.635,-7.812,8.972,2.197,0.01123,1.05273,0.00976,21.83
$MAG,30395.636,-0.408,-0.583,-0.169,20.9
$IMU,30395.638,-4.943,12.573,2.197,0.00146,1.05224,0.00439,21.87
$IMU,30395.640,-2.258,15.930,1.892,-0.00048,1.05419,0.00000,21.87
$IMU,30395.642,0.122,18.371,1.464,0.00878,1.04638,-0.00683,21.87
$IMU,30395.645,2.075,20.996,0.915,0.01660,1.03369,-0.00244,21.87
$MAG,30395.646,-0.406,-0.574,-0.159,20.7
$HUM,30395.647,40.3,22.7
$IMU,30395.647,3.723,22.949,0.244,0.01513,1.02490,-0.00976,21.87
$IMU,30395.649,5.065,23.864,-0.671,0.01171,1.00683,-0.00927,21.87
$IMU,30395.652,5.859,24.902,-1.281,0.01318,0.99218,-0.01123,21.87
$IMU,30395.654,6.103,25.146,-1.770,0.01220,0.97607,-0.00732,21.87
$MAG,30395.656,-0.415,-0.580,-0.169,20.8
$IMU,30395.656,6.042,25.329,-2.014,0.00732,0.96972,0.00000,21.88
$IMU,30395.659,5.859,25.634,-2.197,0.00244,0.97509,-0.00292,21.88
$IMU,30395.661,5.676,25.390,-2.258,-0.00927,0.98779,-0.00292,21.88
$IMU,30395.663,5.737,25.024,-2.258,-0.01318,1.00048,0.00390,21.88
$MAG,30395.666,-0.408,-0.573,-0.174,20.8
$IMU,30395.666,6.225,25.085,-2.258,-0.01318,1.01171,0.00537,21.88
$IMU,30395.668,7.141,24.597,-2.380,-0.00244,1.02246,0.00732,21.88
$IMU,30395.671,8.178,24.841,-2.258,0.00292,1.03027,0.01367,21.88
$IMU,30395.673,9.582,25.207,-1.770,0.01123,1.03320,0.01123,21.88
$IMU,30395.675,11.108,25.634,-0.976,0.01416,1.02832,0.01123,21.86
$MAG,30395.676,-0.415,-0.574,-0.165,20.8
$IMU,30395.678,12.695,25.939,0.122,0.01513,1.02441,0.00683,21.86
$IMU,30395.680,13.854,25.756,1.525,0.00537,1.02978,0.00488,21.86
$IMU,30395.682,14.526,25.329,3.051,0.00390,1.03076,0.00781,21.86
$IMU,30395.685,14.709,24.902,4.516,0.00048,1.02978,0.02343,21.86
$MAG,30395.686,-0.415,-0.570,-0.166,20.8
$IMU,30395.687,14.465,25.024,6.042,-0.00146,1.02929,0.04345,21.86
$IMU,30395.689,13.671,25.634,7.385,-0.01123,1.02490,0.05517,21.86
$IMU,30395.692,12.268,25.512,8.605,-0.01660,1.01806,0.06250,21.86
$IMU,30395.694,10.009,25.634,9.521,-0.01562,1.01904,0.07324,21.87
$MAG,30395.696,-0.427,-0.576,-0.165,20.7
$IMU,30395.696,7.019,25.146,10.009,-0.01562,1.02734,0.08447,21.87
$IMU,30395.699,3.845,24.597,9.948,-0.00488,1.03076,0.08544,21.87
$IMU,30395.701,1.037,23.986,9.765,0.00976,1.03417,0.07568,21.87
$IMU,30395.703,-1.281,22.460,9.643,0.01708,1.03613,0.06738,21.87
$BARO,30395.705,86027.05,22.41
$MAG,30395.706,-0.415,-0.576,-0.163,20.8
$IMU,30395.706,-2.990,21.118,9.643,0.02441,1.04296,0.07031,21.87
$IMU,30395.708,-4.333,20.019,9.521,0.02929,1.05273,0.07763,21.87
$IMU,30395.710,-5.554,19.287,9.216,0.02636,1.05468,0.08251,21.87
$IMU,30395.713,-6.530,18.859,9.033,0.02783,1.05517,0.08398,21.85
$IMU,30395.715,-7.141,18.493,9.216,0.02636,1.04736,0.08886,21.85
$MAG,30395.716,-0.421,-0.573,-0.163,20.8
$IMU,30395.717,-7.385,18.615,9.765,0.02050,1.03857,0.09033,21.85
$IMU,30395.720,-7.507,18.859,10.742,0.02197,1.02880,0.07714,21.85
$IMU,30395.722,-7.568,18.737,12.023,0.02832,1.02099,0.06152,21.85
$IMU,30395.724,-7.568,19.042,13.549,0.03320,1.00878,0.06591,21.85
$MAG,30395.726,-0.436,-0.571,-0.165,20.8
$IMU,30395.727,-7.812,20.324,15.380,0.03906,1.00439,0.06835,21.85
$IMU,30395.729,-8.300,22.216,17.333,0.04589,1.00439,0.06103,21.85
$IMU,30395.731,-8.728,23.376,18.920,0.04394,1.00390,0.04443,21.81
$IMU,30395.734,-8.789,24.230,19.958,0.04736,1.00195,0.03857,21.81
$MAG,30395.736,-0.426,-0.571,-0.165,20.7
$IMU,30395.736,-8.850,25.451,20.568,0.04980,1.00488,0.03027,21.81
$IMU,30395.739,-8.666,26.611,20.629,0.05566,1.00488,0.03027,21.81
$IMU,30395.741,-8.483,28.442,20.446,0.05957,1.01562,0.03466,21.81
$IMU,30395.743,-8.605,30.700,19.897,0.06689,1.04101,0.03320,21.81
$IMU,30395.746,-8.789,33.020,18.859,0.07568,1.07226,0.01855,21.81
$MAG,30395.747,-0.424,-0.570,-0.168,20.9
$IMU,30395.748,-9.033,35.644,17.089,0.08105,1.09472,0.00292,21.81
$IMU,30395.750,-9.277,38.024,15.258,0.08007,1.10009,-0.00732,21.85
$IMU,30395.753,-9.582,40.588,13.549,0.07666,1.09716,-0.01953,21.85
$IMU,30395.755,-9.704,41.992,12.207,0.06738,1.09423,-0.02929,21.85
$MAG,30395.757,-0.433,-0.591,-0.175,20.8
$IMU,30395.757,-9.948,42.846,11.230,0.05761,1.08105,-0.03857,21.85
$IMU,30395.760,-10.314,43.334,10.864,0.04345,1.06152,-0.03710,21.85
$IMU,30395.762,-10.314,43.395,10.864,0.03515,1.03613,-0.03271,21.85
$IMU,30395.764,-9.887,43.029,11.169,0.02539,1.01855,-0.02685,21.85
$MAG,30395.767,-0.435,-0.583,-0.172,20.8
$IMU,30395.767,-8.850,42.846,11.840,0.01220,0.99658,-0.02001,21.85
$IMU,30395.769,-5.981,40.527,11.108,-0.07763,0.91357,-0.05566,21.86
$IMU,30395.771,-3.051,37.231,8.666,0.09375,0.97949,-0.05957,21.86
$IMU,30395.774,-5.004,36.499,11.047,0.09423,0.98193,-0.01318,21.86
$IMU,30395.776,-4.577,33.935,13.671,0.01757,0.95996,0.03515,21.86
$MAG,30395.777,-0.435,-0.582,-0.172,20.8
$IMU,30395.778,-2.014,31.555,15.441,-0.00097,0.95507,0.06787,21.86
$IMU,30395.781,-0.244,30.517,17.944,0.01806,0.96289,0.08154,21.86
$IMU,30395.783,0.549,30.334,21.301,0.04736,0.96728,0.09716,21.86
$IMU,30395.785,1.525,31.311,24.963,0.03808,0.96679,0.09667,21.86
$MAG,30395.787,-0.436,-0.573,-0.174,20.9
$IMU,30395.788,2.990,31.921,28.198,0.03613,0.97949,0.08105,21.85
$IMU,30395.790,4.150,31.555,30.883,0.03906,0.99023,0.06445,21.85
$IMU,30395.792,5.065,31.433,33.325,0.03466,0.99169,0.05322,21.85
$IMU,30395.795,5.859,30.944,35.095,0.02050,0.99462,0.05175,21.85
$MAG,30395.797,-0.433,-0.577,-0.171,20.8
$IMU,30395.797,6.530,31.066,36.193,0.02343,0.99951,0.05468,21.85
$IMU,30395.800,6.652,32.653,36.743,0.02343,1.00585,0.06005,21.85
$IMU,30395.802,6.591,34.667,36.865,0.02880,1.00585,0.07128,21.85
$IMU,30395.804,6.958,36.437,36.437,0.03417,1.00830,0.06982,21.85
$BARO,30395.807,86030.58,22.41
$MAG,30395.807,-0.442,-0.564,-0.175,20.7
$IMU,30395.807,7.873,37.597,35.461,0.04980,1.02001,0.07031,21.86
$IMU,30395.809,9.094,37.536,33.630,0.06298,1.03125,0.06982,21.86
$IMU,30395.811,10.070,37.414,31.555,0.07373,1.03466,0.06445,21.86
$IMU,30395.814,10.803,37.414,29.113,0.08349,1.04150,0.06396,21.86
$IMU,30395.816,11.413,36.865,26.489,0.09375,1.03857,0.05615,21.86
$MAG,30395.817,-0.462,-0.574,-0.171,20.8
$IMU,30395.818,11.718,35.827,24.047,0.09472,1.03515,0.04687,21.86
$IMU,30395.821,11.535,34.301,21.911,0.09472,1.02880,0.03710,21.86
$IMU,30395.823,10.620,32.470,19.836,0.09277,1.02099,0.03320,21.86
$IMU,30395.825,9.033,30.395,17.944,0.09570,1.01513,0.02685,21.83
$MAG,30395.827,-0.462,-0.577,-0.169,20.7
$IMU,30395.828,7.141,28.320,16.418,0.09375,1.01318,0.01904,21.83
$IMU,30395.830,4.699,26.916,15.075,0.08837,1.01074,0.01416,21.83
$IMU,30395.832,2.258,25.695,13.916,0.08691,1.01611,0.00781,21.83
$IMU,30395.835,-0.244,25.085,13.000,0.08496,1.02685,0.00732,21.83
$MAG,30395.837,-0.454,-0.561,-0.169,20.9
$IMU,30395.837,-2.685,25.390,11.901,0.08593,1.03857,0.00732,21.83
$IMU,30395.839,-4.821,26.000,10.864,0.09228,1.06152,0.00292,21.83
$IMU,30395.842,-6.408,26.550,9.582,0.10156,1.08496,-0.00244,21.83
$IMU,30395.844,-7.263,27.526,7.812,0.11132,1.10253,-0.01025,21.84
$IMU,30395.846,-7.080,28.076,6.225,0.12597,1.12402,-0.02197,21.84
$MAG,30395.847,-0.462,-0.571,-0.168,20.7
$IMU,30395.849,-6.042,28.686,4.516,0.13085,1.13574,-0.03222,21.84
$IMU,30395.851,-4.516,29.235,2.868,0.13037,1.13476,-0.03759,21.84
$IMU,30395.853,-2.929,30.212,1.159,0.12011,1.13183,-0.03808,21.84
$IMU,30395.856,-1.098,31.188,-0.427,0.10498,1.11816,-0.03369,21.84
$MAG,30395.857,-0.459,-0.570,-0.178,20.9
$IMU,30395.858,0.976,32.775,-1.403,0.09667,1.10205,-0.03076,21.84
$IMU,30395.861,3.356,34.667,-1.525,0.09814,1.08544,-0.02978,21.84
$IMU,30395.863,6.103,35.888,-0.793,0.11083,1.06689,-0.03759,21.83
$IMU,30395.865,8.972,36.193,0.610,0.08251,1.05810,-0.03271,21.83
$MAG,30395.868,-0.466,-0.580,-0.177,20.9
$IMU,30395.868,11.535,36.804,2.075,0.03906,1.05517,-0.00537,21.83
$IMU,30395.870,13.305,37.109,3.601,0.01074,1.04687,0.02148,21.83
$IMU,30395.872,14.648,36.315,5.554,0.00195,1.03955,0.02929,21.83
$IMU,30395.875,15.625,34.301,7.263,-0.00585,1.03515,0.02685,21.83
$IMU,30395.877,15.991,31.372,8.300,-0.00439,1.03125,0.02490,21.83
$MAG,30395.878,-0.474,-0.577,-0.174,20.8
$IMU,30395.879,15.747,27.832,8.972,-0.00537,1.03173,0.01562,21.83
$IMU,30395.882,15.014,24.108,9.521,-0.00439,1.03955,0.00781,21.84
$IMU,30395.884,13.732,19.714,10.131,-0.01220,1.04638,0.00732,21.84
$IMU,30395.886,12.756,14.892,10.803,-0.00878,1.04296,-0.00097,21.84
$MAG,30395.888,-0.471,-0.574,-0.171,20.8
$IMU,30395.889,12.878,10.681,11.657,0.00781,1.02441,-0.00537,21.84
$IMU,30395.891,14.221,8.239,12.390,0.03320,0.99804,-0.01123,21.84
$IMU,30395.893,16.113,8.056,13.000,0.04980,0.97949,-0.02392,21.84
$IMU,30395.896,17.700,9.399,13.854,0.05029,0.95068,-0.03613,21.84
$MAG,30395.898,-0.469,-0.567,-0.163,20.7
$IMU,30395.898,19.165,11.352,14.953,0.05322,0.91992,-0.05078,21.84
$IMU,30395.900,20.751,13.183,16.052,0.05468,0.90429,-0.06396,21.84
$IMU,30395.903,21.911,13.671,17.517,0.04980,0.88720,-0.07519,21.84
$IMU,30395.905,22.949,13.061,18.676,0.04931,0.87548,-0.08056,21.84
$IMU,30395.907,23.193,11.718,19.531,0.05175,0.87597,-0.08105,21.84
$BARO,30395.908,86028.80,22.41
$MAG,30395.908,-0.475,-0.571,-0.169,20.9
$IMU,30395.910,23.010,9.399,19.653,0.06738,0.87451,-0.08154,21.84
$IMU,30395.912,22.033,6.225,19.287,0.07031,0.88867,-0.08056,21.84
$IMU,30395.914,20.263,1.831,18.493,0.07812,0.90234,-0.08154,21.84
$IMU,30395.917,18.127,-3.540,17.089,0.08642,0.91796,-0.08496,21.84
$MAG,30395.918,-0.477,-0.558,-0.169,20.9
$IMU,30395.919,15.563,-9.521,15.380,0.09082,0.93359,-0.08398,21.87
$IMU,30395.921,12.695,-15.686,13.732,0.09716,0.94677,-0.07910,21.87
$IMU,30395.924,10.375,-21.057,11.901,0.10351,0.94970,-0.07812,21.87
$IMU,30395.926,8.605,-25.024,10.253,0.11816,0.94921,-0.07275,21.87
$MAG,30395.928,-0.475,-0.568,-0.162,20.9
$IMU,30395.929,7.263,-27.648,9.033,0.13964,0.94482,-0.07617,21.87
$IMU,30395.931,6.713,-30.578,8.239,0.19824,0.93798,-0.12402,21.87
$IMU,30395.933,7.080,-34.362,6.958,0.18115,0.93994,-0.13330,21.87
$IMU,30395.936,6.958,-35.278,4.882,0.14160,0.94580,-0.10839,21.87
$MAG,30395.938,-0.469,-0.564,-0.165,20.7
$IMU,30395.938,4.943,-34.484,2.868,0.11621,0.94189,-0.08447,21.84
$IMU,30395.940,2.502,-32.775,1.159,0.11572,0.94140,-0.07324,21.84
$IMU,30395.943,0.427,-31.005,-0.427,0.11669,0.93945,-0.07421,21.84
$IMU,30395.945,-1.220,-29.418,-2.075,0.11669,0.94677,-0.08154,21.84
$IMU,30395.947,-2.563,-27.770,-3.906,0.11083,0.95556,-0.08203,21.84
$MAG,30395.948,-0.478,-0.562,-0.163,20.7
$IMU,30395.950,-4.211,-25.878,-5.310,0.10449,0.97656,-0.08642,21.84
$IMU,30395.952,-6.103,-24.597,-6.286,0.10498,0.99023,-0.08886,21.84
$IMU,30395.954,-7.385,-23.742,-7.080,0.10302,1.00781,-0.09179,21.84
$IMU,30395.957,-8.117,-23.193,-7.446,0.10791,1.02294,-0.08935,21.85
$MAG,30395.958,-0.480,-0.562,-0.163,20.8
$IMU,30395.959,-8.483,-22.827,-7.812,0.10400,1.02880,-0.08251,21.85
$IMU,30395.961,-8.544,-22.888,-7.995,0.10253,1.03027,-0.06982,21.85
$IMU,30395.964,-8.666,-23.315,-7.629,0.09423,1.02734,-0.06201,21.85
$IMU,30395.966,-8.911,-24.291,-6.408,0.08007,1.02734,-0.05517,21.85
$MAG,30395.968,-0.472,-0.568,-0.166,20.7
$IMU,30395.968,-9.399,-26.000,-4.699,0.07519,1.02490,-0.04833,21.85
$IMU,30395.971,-9.887,-27.587,-3.234,0.06591,1.01171,-0.04003,21.85
$IMU,30395.973,-9.887,-28.320,-2.441,0.06396,1.00146,-0.03759,21.85
$IMU,30395.975,-10.253,-29.357,-1.525,0.06445,1.00097,-0.02832,21.84
$MAG,30395.978,-0.460,-0.564,-0.166,20.7
$IMU,30395.978,-11.596,-30.700,0.061,0.06054,0.99902,-0.02099,21.84
$IMU,30395.980,-13.061,-32.714,1.525,0.05224,0.99023,-0.02441,21.84
$IMU,30395.982,-13.366,-34.545,1.586,0.05371,0.98583,-0.03564,21.84
$IMU,30395.985,-13.000,-35.278,0.671,0.06298,0.98437,-0.05175,21.84
$IMU,30395.987,-13.122,-35.034,-0.122,0.06494,0.99218,-0.05615,21.84
$MAG,30395.988,-0.465,-0.562,-0.162,20.8
$IMU,30395.990,-13.732,-35.156,-0.366,0.06396,0.99218,-0.06152,21.84
$IMU,30395.992,-14.160,-34.790,-0.366,0.05273,0.98779,-0.06640,21.84
$IMU,30395.994,-13.244,-33.569,-0.976,0.05371,0.98583,-0.07324,21.86
$IMU,30395.997,-11.657,-31.311,-1.892,0.04687,0.98193,-0.07763,21.86
$MAG,30395.999,-0.469,-0.565,-0.166,20.7
$IMU,30395.999,-9.948,-28.320,-3.051,0.03662,0.98583,-0.06982,21.86
$IMU,30396.001,-8.789,-24.658,-4.211,0.02343,0.98632,-0.06201,21.86
$IMU,30396.004,-7.324,-20.568,-5.676,0.01562,0.98242,-0.06054,21.86
$IMU,30396.006,-5.310,-17.211,-6.835,0.01660,0.96875,-0.08593,21.86
$IMU,30396.008,-3.845,-15.380,-7.446,0.01562,0.97460,-0.07568,21.86
$BARO,30396.009,86022.83,22.42
$MAG,30396.009,-0.462,-0.567,-0.168,20.9
$IMU,30396.011,-3.356,-12.634,-9.094,0.00878,0.97851,-0.04931,21.86
$IMU,30396.013,-3.784,-9.277,-11.535,0.01025,0.98779,-0.01562,21.87
$IMU,30396.015,-4.272,-5.554,-13.061,0.01611,0.99169,0.01757,21.87
$IMU,30396.018,-4.821,-1.770,-14.038,0.01855,1.00488,0.02978,21.87
$MAG,30396.019,-0.460,-0.562,-0.162,20.9
$IMU,30396.020,-4.821,1.281,-14.221,-0.00585,1.02001,0.00488,21.87
$IMU,30396.022,-3.479,6.530,-14.160,-0.06054,1.02246,-0.05126,21.87
$IMU,30396.025,-2.075,13.305,-13.000,-0.02392,1.01708,-0.04833,21.87
$IMU,30396.027,-0.061,13.854,-9.948,0.00488,1.01171,-0.02148,21.87
$MAG,30396.029,-0.466,-0.568,-0.157,20.8
$IMU,30396.029,3.295,10.498,-6.591,-0.00683,1.01318,-0.00292,21.87
$IMU,30396.032,5.859,6.408,-4.638,-0.01562,1.02734,-0.00878,21.88
$IMU,30396.034,6.591,2.502,-3.540,-0.01269,1.04199,-0.01611,21.88
$IMU,30396.036,5.554,-0.610,-2.929,-0.01220,1.04687,-0.01464,21.88
$MAG,30396.039,-0.451,-0.571,-0.162,20.9
$IMU,30396.039,4.089,-3.479,-2.441,-0.00732,1.05761,-0.00927,21.88
$IMU,30396.041,2.685,-5.737,-2.258,0.00537,1.06787,-0.00097,21.88
$IMU,30396.043,1.525,-7.812,-1.770,0.01660,1.08154,0.00439,21.88
$IMU,30396.046,0.671,-9.887,-0.732,0.02246,1.09326,0.00683,21.88
$IMU,30396.048,-0.122,-12.084,0.488,0.01708,1.10156,0.00439,21.88
$MAG,30396.049,-0.454,-0.570,-0.159,20.7
$IMU,30396.050,-0.549,-13.793,1.770,0.01806,1.11230,-0.00292,21.85
$IMU,30396.053,-0.427,-15.869,3.356,0.01513,1.10498,-0.00683,21.85
$IMU,30396.055,-0.732,-17.761,4.577,0.02197,1.11035,-0.00146,21.85
$IMU,30396.058,-1.647,-19.287,5.554,0.03076,1.10009,0.00000,21.85
$MAG,30396.059,-0.457,-0.559,-0.163,20.8
$IMU,30396.060,-3.234,-19.775,6.164,0.04101,1.09277,-0.00292,21.85
$IMU,30396.062,-4.516,-20.385,6.591,0.05566,1.08105,-0.00488,21.85
$IMU,30396.065,-5.249,-20.935,6.652,0.05615,1.07031,-0.01318,21.85
$IMU,30396.067,-5.798,-20.324,6.713,0.05664,1.05322,-0.02294,21.85
$MAG,30396.069,-0.450,-0.567,-0.171,20.9
$IMU,30396.069,-6.591,-19.531,6.774,0.06933,1.04394,-0.03125,21.88
$IMU,30396.072,-6.835,-18.737,7.019,0.06835,1.03222,-0.04541,21.88
$IMU,30396.074,-6.103,-17.822,6.835,0.06787,1.01562,-0.05322,21.88
$IMU,30396.076,-4.821,-17.272,6.103,0.06298,1.00634,-0.05126,21.88
$IMU,30396.079,-4.272,-16.723,5.004,0.06347,0.99804,-0.04931,21.88
$MAG,30396.079,-0.459,-0.564,-0.163,20.7
$IMU,30396.081,-3.723,-15.747,3.662,0.06250,0.98339,-0.05029,21.88
$IMU,30396.083,-3.356,-14.343,2.075,0.06250,0.97460,-0.05615,21.88
$IMU,30396.086,-2.807,-12.390,0.854,0.05810,0.96777,-0.05761,21.88
$IMU,30396.088,-1.647,-11.108,-0.061,0.05419,0.96582,-0.05810,21.85
$MAG,30396.089,-0.456,-0.576,-0.159,20.9
$IMU,30396.090,-0.610,-10.864,-0.671,0.04736,0.96386,-0.05859,21.85
$IMU,30396.093,-0.061,-10.864,-1.098,0.04589,0.95849,-0.06054,21.85
$IMU,30396.095,0.793,-11.169,-1.098,0.04589,0.95654,-0.05078,21.85
$IMU,30396.097,1.342,-11.840,-1.098,0.04785,0.95996,-0.04296,21.85
$MAG,30396.099,-0.463,-0.574,-0.169,20.8
$IMU,30396.100,1.953,-12.390,-0.671,0.04882,0.96435,-0.03613,21.85
$IMU,30396.102,2.197,-12.451,-0.061,0.04736,0.97070,-0.03369,21.85
$IMU,30396.104,2.319,-12.451,0.305,0.04833,0.97802,-0.02880,21.85
$IMU,30396.107,1.770,-11.474,0.244,0.05468,0.98632,-0.02539,21.86
$MAG,30396.109,-0.459,-0.567,-0.163,20.7
$IMU,30396.109,1.342,-10.375,0.061,0.06103,0.99804,-0.02246,21.86
$BARO,30396.111,86025.88,22.42
$IMU,30396.111,0.976,-9.765,0.000,0.06445,1.00683,-0.01757,21.86
$IMU,30396.114,0.610,-9.094,0.183,0.06298,1.01464,-0.01074,21.86
$IMU,30396.116,-0.183,-8.483,0.366,0.06250,1.02294,-0.00781,21.86
$MAG,30396.119,-0.462,-0.564,-0.163,20.9
$IMU,30396.119,-0.793,-8.178,1.281,0.07470,1.04394,-0.01025,21.86
$IMU,30396.121,0.549,-7.324,4.638,0.08691,1.07080,-0.00683,21.86
$IMU,30396.123,2.197,-7.446,8.422,0.06640,1.03808,0.01611,21.86
$IMU,30396.126,2.502,-8.850,8.605,0.05615,1.04541,0.01464,21.84
$IMU,30396.128,3.051,-8.850,8.789,0.06298,1.05126,0.00732,21.84
$MAG,30396.130,-0.462,-0.570,-0.166,20.9
$IMU,30396.130,3.356,-8.972,9.399,0.06591,1.04003,0.00244,21.84
$IMU,30396.133,3.906,-9.094,9.582,0.07421,1.03906,0.00097,21.84
$IMU,30396.135,4.638,-7.995,9.582,0.08789,1.04541,-0.00781,21.84
$IMU,30396.137,5.187,-6.164,9.094,0.09375,1.05908,-0.02001,21.84
$MAG,30396.140,-0.453,-0.571,-0.160,20.8
$IMU,30396.140,5.676,-3.967,8.178,0.09765,1.06884,-0.02636,21.84
$IMU,30396.142,6.225,-0.976,7.263,0.09326,1.07226,-0.03466,21.84
$IMU,30396.144,7.141,0.732,6.286,0.08447,1.07324,-0.03173,21.87
$IMU,30396.147,7.934,2.136,5.432,0.07275,1.07226,-0.02294,21.87
$IMU,30396.149,8.850,3.051,5.004,0.06884,1.06689,-0.00292,21.87
$MAG,30396.150,-0.459,-0.568,-0.160,20.9
$IMU,30396.151,9.155,3.051,4.577,0.05859,1.04492,0.01464,21.87
$IMU,30396.154,8.972,2.441,4.150,0.05322,1.03906,0.02685,21.87
$IMU,30396.156,8.666,1.342,4.394,0.04736,1.03125,0.03564,21.87
$IMU,30396.158,8.239,-0.183,4.821,0.04736,1.02343,0.03857,21.87
$MAG,30396.160,-0.463,-0.562,-0.154,20.9
$IMU,30396.161,7.873,-2.136,4.699,0.04833,1.02197,0.03125,21.87
$IMU,30396.163,7.629,-4.272,4.577,0.05419,1.02392,0.02148,21.90
$IMU,30396.165,7.751,-6.103,4.089,0.06494,1.02490,0.00927,21.90
$IMU,30396.168,8.056,-7.934,3.662,0.08056,1.02734,-0.00732,21.90
$MAG,30396.170,-0.456,-0.567,-0.159,20.9
$IMU,30396.170,8.605,-9.338,3.723,0.09277,1.02392,-0.01416,21.90
$IMU,30396.172,9.399,-10.803,4.028,0.10058,1.02490,-0.02246,21.90
$IMU,30396.175,10.253,-12.023,4.211,0.10302,1.02685,-0.02929,21.90
$IMU,30396.177,10.925,-12.756,4.455,0.10888,1.02929,-0.02978,21.90
$IMU,30396.179,11.474,-13.244,4.760,0.11474,1.02978,-0.02343,21.90
$MAG,30396.180,-0.465,-0.564,-0.156,20.9
$IMU,30396.182,11.474,-13.366,4.760,0.11523,1.03369,-0.01660,21.84
$IMU,30396.184,10.742,-12.756,4.272,0.11181,1.04296,-0.00683,21.84
$IMU,30396.187,9.460,-11.901,3.356,0.10644,1.04687,0.01025,21.84
$IMU,30396.189,7.812,-10.742,2.258,0.09960,1.04199,0.02148,21.84
$MAG,30396.190,-0.463,-0.567,-0.168,20.9
$IMU,30396.191,6.164,-9.887,0.976,0.09130,1.04296,0.03564,21.84
$IMU,30396.194,4.760,-9.155,-0.061,0.08642,1.04296,0.04785,21.84
$IMU,30396.196,3.906,-8.911,-0.671,0.08789,1.04199,0.04882,21.84
$IMU,30396.198,3.784,-8.789,-0.915,0.09130,1.03662,0.04589,21.84
$MAG,30396.200,-0.451,-0.573,-0.157,20.8
$IMU,30396.201,4.333,-8.850,-0.854,0.09375,1.03710,0.03710,21.89
$IMU,30396.203,5.187,-9.338,-0.671,0.09667,1.04687,0.02636,21.89
$IMU,30396.205,6.774,-11.596,-2.441,0.10937,1.14160,-0.01367,21.89
$IMU,30396.208,8.789,-15.625,-6.958,0.13281,1.11914,-0.01904,21.89
$MAG,30396.210,-0.456,-0.568,-0.157,20.8
$IMU,30396.210,10.253,-18.737,-9.521,0.13037,1.08935,-0.03515,21.89
$BARO,30396.212,86031.92,22.42
$IMU,30396.212,10.314,-20.141,-10.375,0.14599,1.05908,-0.03857,21.89
$IMU,30396.215,8.850,-18.310,-10.864,0.18603,1.03027,-0.02832,21.89
$IMU,30396.217,6.408,-13.305,-11.596,0.19726,1.00585,-0.02587,21.89
$IMU,30396.219,3.479,-6.958,-12.878,0.19189,0.98681,-0.02636,21.87
$MAG,30396.220,-0.460,-0.564,-0.160,20.8
$IMU,30396.222,0.671,-0.183,-13.977,0.17871,0.96875,-0.02441,21.87
$IMU,30396.224,-1.464,7.080,-14.526,0.16357,0.95263,-0.02441,21.87
$IMU,30396.226,-3.173,13.732,-14.099,0.15185,0.94189,-0.01367,21.87
$IMU,30396.229,-4.577,18.554,-13.000,0.13916,0.94091,-0.00390,21.87
$MAG,30396.230,-0.457,-0.565,-0.159,20.8
$IMU,30396.231,-5.676,21.911,-11.840,0.12158,0.95068,0.00634,21.87
$IMU,30396.233,-6.164,23.559,-10.986,0.10546,0.96484,0.01611,21.87
$IMU,30396.236,-6.225,23.498,-10.559,0.08984,0.98144,0.02001,21.87
$IMU,30396.238,-5.920,22.888,-10.620,0.08203,0.99218,0.02050,21.88
$MAG,30396.240,-0.453,-0.570,-0.157,20.7
$IMU,30396.240,-5.554,22.399,-11.291,0.08300,1.00488,0.02343,21.88
$IMU,30396.243,-5.432,21.240,-12.268,0.08789,1.00634,0.02099,21.88
$IMU,30396.245,-5.249,20.141,-13.183,0.09521,1.00683,0.01367,21.88
$IMU,30396.248,-5.187,19.592,-13.732,0.09765,1.00585,0.00830,21.88
$MAG,30396.250,-0.462,-0.570,-0.160,20.9
$IMU,30396.250,-4.943,18.981,-14.099,0.10009,1.00000,0.00585,21.88
$IMU,30396.252,-4.760,18.798,-14.099,0.09375,0.99609,0.00292,21.88
$IMU,30396.255,-4.516,18.920,-14.038,0.09228,0.99316,0.00097,21.88
$IMU,30396.257,-4.455,18.981,-13.977,0.09130,0.99414,0.00292,21.89
$IMU,30396.259,-4.394,18.676,-13.793,0.11865,1.00439,0.00439,21.89
$MAG,30396.261,-0.463,-0.570,-0.153,20.9
$IMU,30396.262,-4.333,16.906,-13.793,0.13574,1.02148,-0.01318,21.89
$IMU,30396.264,-4.089,15.380,-13.916,0.08544,1.03125,0.01464,21.89
$IMU,30396.266,-3.601,15.380,-13.854,0.05029,1.04199,0.04003,21.89
$IMU,30396.269,-2.929,14.892,-13.061,0.04492,1.04199,0.05517,21.89
$MAG,30396.271,-0.445,-0.574,-0.150,20.9
$IMU,30396.271,-2.014,13.610,-12.023,0.05126,1.03564,0.05468,21.89
$IMU,30396.273,-0.732,12.023,-10.681,0.05664,1.03320,0.04248,21.89
$IMU,30396.276,0.793,10.437,-9.338,0.05419,1.02734,0.02734,21.89
$IMU,30396.278,2.441,8.972,-8.239,0.05615,1.02490,0.01855,21.89
$IMU,30396.280,3.784,7.629,-7.141,0.06787,1.02050,0.01367,21.89
$MAG,30396.281,-0.441,-0.573,-0.154,20.9
$IMU,30396.283,4.943,6.286,-6.103,0.07080,1.01220,0.01513,21.89
$IMU,30396.285,5.981,5.554,-5.432,0.06933,1.00244,0.01464,21.89
$IMU,30396.287,6.835,4.882,-5.126,0.06689,0.99609,0.01904,21.89
$IMU,30396.290,7.080,4.394,-5.187,0.06396,0.98974,0.02539,21.89
$MAG,30396.291,-0.447,-0.571,-0.165,20.9
$IMU,30396.292,6.774,3.845,-5.310,0.06347,0.98291,0.02832,21.89
$IMU,30396.294,6.225,3.234,-5.615,0.06982,0.97851,0.02929,21.89
$IMU,30396.297,5.615,2.258,-6.042,0.07373,0.98242,0.02490,21.89
$IMU,30396.299,4.943,1.403,-6.652,0.07373,0.98486,0.01953,21.89
$MAG,30396.301,-0.456,-0.576,-0.159,20.7
$IMU,30396.301,4.150,0.305,-7.263,0.07324,0.99169,0.01464,21.89
$IMU,30396.304,2.197,0.183,-7.873,0.07080,0.99365,0.00390,21.89
$IMU,30396.306,0.122,0.793,-8.056,0.07275,0.99267,-0.00830,21.89
$IMU,30396.308,-0.183,0.488,-8.483,0.06982,0.99658,-0.01513,21.89
$MAG,30396.311,-0.445,-0.570,-0.163,20.9
$IMU,30396.311,0.610,-0.976,-8.911,0.06640,1.01074,-0.01708,21.89
$IMU,30396.313,1.281,-2.319,-9.338,0.06689,1.02490,-0.01806,21.86
$BARO,30396.314,86024.76,22.42
$IMU,30396.316,1.281,-3.356,-9.948,0.07031,1.02880,-0.00976,21.86
$IMU,30396.318,0.793,-3.417,-10.864,0.07226,1.03027,-0.00781,21.86
$IMU,30396.320,-0.366,-1.831,-11.840,0.07177,1.03173,-0.00585,21.86
$MAG,30396.321,-0.454,-0.562,-0.156,20.9
$IMU,30396.323,-1.647,0.488,-12.817,0.06005,1.03320,-0.01171,21.86
$IMU,30396.325,-2.502,2.929,-13.854,0.05175,1.02978,-0.01318,21.86
$IMU,30396.327,-3.051,5.493,-14.831,0.04785,1.02246,-0.00976,21.86
$IMU,30396.330,-3.234,7.995,-15.686,0.04541,1.02148,-0.01269,21.86
$MAG,30396.331,-0.445,-0.564,-0.157,20.9
$VBAT,30396.331,4.126
$IMU,30396.332,-3.112,10.070,-16.540,0.04541,1.01806,-0.01318,21.87
$IMU,30396.334,-2.929,12.329,-17.517,0.04345,1.01464,-0.01562,21.87
$IMU,30396.337,-2.685,14.221,-18.615,0.04052,1.01171,-0.02050,21.87
$IMU,30396.339,-2.441,15.380,-19.592,0.04345,1.01123,-0.02734,21.87
$MAG,30396.341,-0.450,-0.564,-0.154,20.9
$IMU,30396.341,-2.441,16.052,-20.324,0.04052,1.00585,-0.02880,21.87
$IMU,30396.344,-2.502,16.113,-21.057,0.03564,1.00244,-0.02490,21.87
$IMU,30396.346,-2.868,15.869,-21.545,0.02343,0.99560,-0.01513,21.87
$IMU,30396.348,-3.356,15.563,-21.667,0.01806,0.98925,-0.00195,21.87
$MAG,30396.351,-0.445,-0.570,-0.153,20.8
$IMU,30396.351,-4.028,15.441,-21.423,0.01269,0.97998,0.00781,21.85
$IMU,30396.353,-4.821,15.991,-20.568,0.00781,0.97216,0.00927,21.85
$IMU,30396.355,-5.554,17.028,-19.470,0.00878,0.96777,0.00488,21.85
$IMU,30396.358,-6.469,17.578,-18.310,0.01025,0.97558,0.00097,21.85
$IMU,30396.360,-7.446,17.211,-17.395,0.01171,0.97949,-0.00488,21.85
$MAG,30396.361,-0.444,-0.576,-0.163,20.8
$IMU,30396.362,-8.605,15.563,-16.601,0.01269,0.99072,-0.00927,21.85
$IMU,30396.365,-9.826,13.305,-15.930,0.01806,1.00244,-0.02441,21.85
$IMU,30396.367,-10.559,13.732,-15.319,0.01757,1.01513,-0.04101,21.85
$IMU,30396.369,-11.352,14.526,-14.587,0.02978,1.02490,-0.03955,21.88
$MAG,30396.371,-0.445,-0.564,-0.159,20.8
$IMU,30396.372,-12.329,12.939,-13.244,0.03271,1.03906,-0.02978,21.88
$IMU,30396.374,-12.573,10.009,-11.535,0.03076,1.05419,-0.02685,21.88
$IMU,30396.377,-11.657,7.934,-10.009,0.02197,1.06542,-0.02978,21.88
$IMU,30396.379,-9.643,5.615,-8.666,0.02441,1.05761,-0.02978,21.88
$MAG,30396.381,-0.451,-0.568,-0.157,20.7
$IMU,30396.381,-7.263,3.784,-7.080,0.02392,1.05126,-0.02734,21.88
$IMU,30396.384,-4.638,1.708,-5.432,0.01855,1.03271,-0.02197,21.88
$IMU,30396.386,-2.258,-0.305,-3.967,0.00976,1.01660,-0.02685,21.88
$IMU,30396.388,-0.244,-1.647,-2.502,0.00048,0.99755,-0.03173,21.90
$IMU,30396.391,1.037,-2.990,-1.281,-0.00292,0.97851,-0.03515,21.90
$MAG,30396.392,-0.438,-0.565,-0.159,20.8
$IMU,30396.393,1.708,-4.943,-0.427,-0.00830,0.96679,-0.03710,21.90
$IMU,30396.395,1.892,-7.080,0.122,-0.01171,0.95312,-0.04003,21.90
$IMU,30396.398,1.647,-8.911,0.366,-0.00830,0.94970,-0.03417,21.90
$IMU,30396.400,1.037,-11.108,0.549,-0.00097,0.94873,-0.02978,21.90
$MAG,30396.402,-0.439,-0.570,-0.157,20.7
$IMU,30396.402,0.122,-13.244,0.610,0.00244,0.94775,-0.02734,21.90
$IMU,30396.405,-0.976,-15.563,0.610,0.00781,0.95019,-0.02099,21.90
$IMU,30396.407,-2.197,-17.761,0.305,0.00195,0.95312,-0.01855,21.90
$IMU,30396.409,-3.479,-19.714,0.061,0.00000,0.96093,-0.01318,21.90
$MAG,30396.412,-0.445,-0.574,-0.160,20.9
$IMU,30396.412,-4.760,-20.996,-0.183,-0.00341,0.96875,-0.01269,21.90
$IMU,30396.414,-5.859,-22.521,-0.427,-0.00732,0.97607,-0.01416,21.90
$BARO,30396.415,86024.95,22.42
$IMU,30396.416,-6.530,-23.681,-0.549,-0.00878,0.98779,-0.01318,21.90
$IMU,30396.419,-7.141,-24.047,-0.610,-0.00927,0.99267,-0.01171,21.90
$IMU,30396.421,-7.385,-24.169,-0.732,-0.01171,1.00488,-0.01416,21.90
$MAG,30396.422,-0.447,-0.570,-0.160,20.7
$IMU,30396.423,-7.324,-23.742,-0.793,-0.01074,1.01318,-0.01953,21.90
$IMU,30396.426,-7.019,-22.888,-1.037,-0.00927,1.01708,-0.02197,21.89
$IMU,30396.428,-6.286,-22.216,-1.342,-0.00927,1.01806,-0.03662,21.89
$IMU,30396.430,-5.310,-23.071,-0.305,-0.00585,0.94677,-0.12060,21.89
$MAG,30396.432,-0.438,-0.576,-0.168,20.7
$IMU,30396.433,-4.333,-28.198,2.868,-0.03320,0.95605,-0.13378,21.89
$IMU,30396.435,-3.540,-31.005,3.723,-0.03076,0.98291,-0.07177,21.89
$IMU,30396.437,-3.662,-30.029,3.417,-0.01025,0.99511,-0.01269,21.89
$IMU,30396.440,-4.211,-27.893,2.929,0.00097,1.00341,0.01855,21.89
$MAG,30396.442,-0.435,-0.567,-0.165,20.8
$IMU,30396.442,-4.516,-24.841,2.258,0.01025,1.02099,0.01660,21.89
$IMU,30396.445,-4.516,-21.850,0.976,0.01025,1.04833,0.00146,21.90
$IMU,30396.447,-4.455,-19.470,-1.037,0.01757,1.06542,-0.00537,21.90
$IMU,30396.449,-4.577,-17.578,-3.112,0.01904,1.07275,-0.01855,21.90
$MAG,30396.452,-0.445,-0.570,-0.156,20.9
$IMU,30396.452,-4.699,-16.418,-5.249,0.02636,1.08544,-0.02246,21.90
$IMU,30396.454,-4.760,-15.380,-7.324,0.02685,1.07763,-0.02685,21.90
$IMU,30396.456,-4.333,-14.770,-8.789,0.01953,1.06689,-0.02832,21.90
$IMU,30396.459,-3.662,-14.160,-9.460,0.01513,1.06298,-0.02783,21.90
$IMU,30396.461,-2.685,-13.610,-9.399,0.00732,1.05175,-0.02099,21.90
$MAG,30396.462,-0.441,-0.574,-0.159,20.9
$IMU,30396.463,-1.586,-12.878,-8.666,0.00488,1.04785,-0.01660,21.87
$IMU,30396.466,-0.732,-12.573,-7.629,0.00244,1.03906,-0.01220,21.87
$IMU,30396.468,-0.061,-12.390,-6.591,0.00097,1.03515,-0.01318,21.87
$IMU,30396.470,0.427,-12.390,-5.371,0.00781,1.00488,-0.03222,21.87
$IMU,30396.473,0.488,-14.892,-1.892,-0.00244,0.92724,-0.08837,21.87
$MAG,30396.472,-0.441,-0.568,-0.162,20.7
$IMU,30396.475,0.061,-19.714,1.770,-0.02734,0.97460,-0.07373,21.87
$IMU,30396.477,-1.037,-22.338,1.831,-0.01318,0.99707,-0.02490,21.87
$IMU,30396.480,-2.929,-22.888,0.854,-0.00683,1.01123,0.02099,21.87
$MAG,30396.482,-0.441,-0.577,-0.163,20.8
$IMU,30396.482,-4.760,-22.277,-0.915,-0.00439,1.01953,0.03613,21.88
$IMU,30396.484,-6.164,-21.728,-2.319,-0.00976,1.02246,0.02587,21.88
$IMU,30396.487,-7.263,-22.155,-3.479,-0.01074,1.04052,0.01416,21.88
$IMU,30396.489,-8.117,-23.681,-4.882,-0.01757,1.07226,0.01464,21.88
$IMU,30396.491,-8.361,-25.146,-6.896,-0.01171,1.09130,0.02539,21.88
$MAG,30396.492,-0.438,-0.564,-0.166,20.9
$IMU,30396.494,-7.995,-26.184,-9.033,-0.00048,1.09326,0.02148,21.88
$IMU,30396.496,-6.713,-27.648,-10.559,0.00048,1.08447,0.00878,21.88
$IMU,30396.498,-4.943,-28.747,-11.230,0.00292,1.07519,-0.00341,21.88
$IMU,30396.501,-3.295,-29.296,-11.413,0.00000,1.06689,-0.01171,21.88
$MAG,30396.502,-0.430,-0.577,-0.168,20.8
$IMU,30396.503,-2.014,-29.663,-11.169,-0.00244,1.05761,-0.01318,21.88
$IMU,30396.506,-1.098,-29.052,-10.375,-0.00390,1.04638,-0.01416,21.88
$IMU,30396.508,-0.427,-28.259,-9.460,-0.00634,1.03515,-0.01660,21.88
$IMU,30396.510,0.183,-27.038,-8.239,-0.01025,1.02490,-0.01757,21.88
$MAG,30396.513,-0.429,-0.577,-0.166,20.8
$IMU,30396.513,0.793,-26.000,-7.019,-0.01318,1.01123,-0.01513,21.88
$IMU,30396.515,1.281,-25.634,-5.737,-0.00537,0.95458,-0.03808,21.88
$BARO,30396.517,86032.92,22.42
$IMU,30396.517,1.281,-29.174,-1.647,-0.02197,0.87011,-0.08056,21.88
$IMU,30396.520,0.305,-36.315,2.014,-0.04150,0.92675,-0.05175,21.87
$IMU,30396.522,-1.525,-41.320,1.525,-0.01806,0.97265,-0.00390,21.87
$MAG,30396.523,-0.432,-0.577,-0.163,20.7
$IMU,30396.524,-3.784,-39.916,0.122,-0.01757,0.98437,0.01318,21.87
$IMU,30396.527,-5.310,-35.095,-0.732,-0.02490,0.98046,0.00341,21.87
$IMU,30396.529,-7.080,-33.142,-0.549,-0.01123,0.99462,-0.01171,21.87
$IMU,30396.531,-9.155,-32.653,-0.244,-0.01220,1.04003,-0.01269,21.87
$MAG,30396.533,-0.433,-0.579,-0.159,20.8
$IMU,30396.534,-10.925,-31.677,-0.793,-0.00244,1.05371,-0.00585,21.87
$IMU,30396.536,-12.084,-29.968,-1.098,-0.00146,1.05664,-0.01123,21.87
$IMU,30396.538,-12.451,-27.893,-0.976,-0.00488,1.07763,-0.00585,21.86
$IMU,30396.541,-12.634,-25.512,-1.098,0.00195,1.07177,0.01416,21.86
$MAG,30396.543,-0.426,-0.574,-0.169,20.8
$IMU,30396.543,-12.756,-24.719,-1.159,0.00830,1.06054,0.03027,21.86
$IMU,30396.545,-12.817,-24.719,-1.037,0.00439,1.06152,0.02978,21.86
$IMU,30396.548,-12.878,-23.498,-1.098,-0.00537,1.05273,0.02197,21.86
$IMU,30396.550,-12.390,-21.179,-2.014,-0.00732,1.03808,0.01464,21.86
$IMU,30396.552,-12.145,-18.615,-2.746,0.00195,1.03759,0.01757,21.86
$MAG,30396.553,-0.418,-0.570,-0.169,20.9
$IMU,30396.555,-12.329,-17.150,-2.075,0.00781,1.04394,0.02929,21.86
$IMU,30396.557,-12.939,-17.700,0.244,0.02294,1.04443,0.03710,21.88
$IMU,30396.559,-13.305,-19.348,3.173,0.02832,1.03662,0.03466,21.88
$IMU,30396.562,-12.512,-20.507,5.554,0.03466,1.02783,0.02929,21.88
$MAG,30396.563,-0.420,-0.571,-0.169,20.8
$IMU,30396.564,-11.169,-20.690,7.080,0.04101,1.02490,0.02294,21.88
$IMU,30396.566,-9.704,-20.935,7.995,0.03955,1.02392,0.01855,21.88
$IMU,30396.569,-9.033,-21.484,8.422,0.04248,1.02685,0.01562,21.88
$IMU,30396.571,-8.300,-22.338,8.178,0.04589,1.01660,0.01416,21.88
$MAG,30396.573,-0.420,-0.573,-0.162,20.9
$IMU,30396.574,-6.835,-23.559,6.835,0.05126,1.00097,0.01513,21.88
$IMU,30396.576,-4.577,-24.597,4.089,0.05371,0.97509,0.02636,21.83
$IMU,30396.578,-1.525,-26.000,-1.220,0.06787,0.94873,0.04492,21.83
$IMU,30396.581,3.417,-26.611,-8.544,0.09179,0.93652,0.06201,21.83
$MAG,30396.583,-0.424,-0.579,-0.165,20.7
$IMU,30396.583,9.094,-25.146,-15.014,0.07031,0.93701,0.05175,21.83
$IMU,30396.585,12.756,-22.460,-18.981,0.04638,0.95898,0.03613,21.83
$IMU,30396.588,15.380,-20.690,-21.728,0.02197,0.98095,0.02539,21.83
$IMU,30396.590,16.784,-21.240,-23.010,-0.00097,1.00244,0.01855,21.83
$IMU,30396.592,16.723,-23.376,-22.155,-0.01220,1.02490,0.00976,21.83
$MAG,30396.593,-0.414,-0.571,-0.163,20.8
$IMU,30396.595,15.441,-26.367,-19.836,-0.01318,1.03564,0.00830,21.88
$IMU,30396.597,13.122,-30.395,-17.700,-0.00781,1.03613,0.00732,21.88
$IMU,30396.599,10.498,-34.240,-15.563,0.00341,1.03222,0.00097,21.88
$IMU,30396.602,8.056,-36.193,-13.305,0.01660,1.02441,-0.00781,21.88
$MAG,30396.603,-0.418,-0.576,-0.162,20.9
$IMU,30396.604,6.103,-36.437,-10.925,0.02539,1.01220,-0.01318,21.88
$IMU,30396.606,4.577,-36.010,-8.605,0.02685,1.00976,-0.01416,21.88
$IMU,30396.609,3.906,-35.095,-6.286,0.01708,1.00292,-0.00683,21.88
$IMU,30396.611,3.540,-34.423,-3.662,0.00634,1.00390,-0.00488,21.88
$MAG,30396.613,-0.411,-0.574,-0.165,20.8
$IMU,30396.613,3.112,-33.813,-0.732,0.00000,1.01562,-0.00341,21.89
$IMU,30396.616,2.990,-33.020,1.953,0.00976,1.02392,0.00244,21.89
$BARO,30396.618,86034.04,22.42
$IMU,30396.618,2.563,-32.104,4.089,0.00976,1.02978,0.01025,21.89
$IMU,30396.620,1.342,-31.311,5.981,0.01171,1.03466,0.01416,21.89
$MAG,30396.623,-0.414,-0.577,-0.166,20.8
$IMU,30396.623,-0.061,-30.822,7.446,0.01220,1.04150,0.02050,21.89
$IMU,30396.625,-0.976,-30.578,8.422,0.01464,1.03857,0.02783,21.89
$IMU,30396.627,-1.464,-29.541,9.582,0.01562,1.03759,0.03125,21.89
$IMU,30396.630,-1.403,-28.320,10.864,0.01171,1.04052,0.03271,21.89
$IMU,30396.632,-0.732,-27.587,11.718,0.01318,1.04882,0.03173,21.90
$MAG,30396.633,-0.415,-0.577,-0.159,20.7
$IMU,30396.635,0.305,-27.099,12.329,0.01123,1.05322,0.03125,21.90
$IMU,30396.637,2.014,-26.733,12.634,0.01660,1.05859,0.02685,21.90
$IMU,30396.639,4.455,-26.489,12.695,0.01757,1.05517,0.02050,21.90
$IMU,30396.642,7.080,-25.695,12.878,0.02001,1.05810,0.01562,21.90
$MAG,30396.644,-0.406,-0.571,-0.159,20.7
$IMU,30396.644,9.521,-24.658,12.695,0.02539,1.06591,0.01904,21.90
$IMU,30396.646,11.840,-23.803,12.084,0.03027,1.06835,0.02246,21.90
$IMU,30396.649,13.916,-22.644,10.925,0.02636,1.06298,0.02246,21.90
$IMU,30396.651,15.258,-21.118,9.704,0.03076,1.06103,0.02148,21.86
$IMU,30396.653,16.235,-19.104,8.361,0.02880,1.05273,0.02587,21.86
$MAG,30396.654,-0.402,-0.570,-0.159,20.8
$IMU,30396.656,17.150,-16.967,6.896,0.02929,1.04052,0.03271,21.86
$IMU,30396.658,18.005,-14.648,5.310,0.02587,1.02539,0.03271,21.86
$IMU,30396.660,18.920,-12.756,4.028,0.02246,1.01220,0.02734,21.86
$HUM,30396.662,40.4,22.7
$IMU,30396.663,19.836,-10.925,2.990,0.02050,0.99755,0.02050,21.86
$MAG,30396.664,-0.420,-0.571,-0.156,20.7
$IMU,30396.665,20.507,-9.460,2.258,0.02050,0.98535,0.01464,21.86
$IMU,30396.667,20.812,-7.934,1.892,0.01562,0.97021,0.00781,21.86
$IMU,30396.670,20.568,-6.530,1.525,0.01855,0.96044,0.00390,21.86
$IMU,30396.672,20.019,-5.187,1.342,0.01855,0.94726,0.00048,21.86
$MAG,30396.674,-0.418,-0.565,-0.159,20.8
$IMU,30396.674,18.859,-3.662,1.953,0.01318,0.94531,-0.00585,21.86
$IMU,30396.677,16.540,-1.525,2.685,0.02001,0.95556,-0.01220,21.86
$IMU,30396.679,13.183,1.159,3.234,0.01806,0.96679,-0.02099,21.86
$IMU,30396.681,9.338,4.089,4.089,0.02246,0.98925,-0.03076,21.86
$MAG,30396.684,-0.411,-0.570,-0.151,20.8
$IMU,30396.684,6.408,6.774,4.699,0.02978,1.01318,-0.03271,21.86
$IMU,30396.686,5.004,8.911,5.004,0.03710,1.02636,-0.02490,21.86
$IMU,30396.688,5.004,10.864,5.065,0.04101,1.03515,-0.01464,21.89
$IMU,30396.691,5.676,12.878,5.798,0.04443,1.04980,-0.00048,21.89
$IMU,30396.693,6.713,14.709,6.652,0.05126,1.05664,0.00634,21.89
$MAG,30396.694,-0.409,-0.571,-0.154,20.9
$IMU,30396.695,8.178,16.906,7.629,0.05126,1.06152,0.01562,21.89
$IMU,30396.698,10.253,18.615,8.117,0.05566,1.05859,0.02001,21.89
$IMU,30396.700,12.634,20.507,7.873,0.05371,1.04980,0.01757,21.89
$IMU,30396.703,15.502,21.789,7.263,0.06103,1.05273,0.02099,21.89
$MAG,30396.704,-0.414,-0.567,-0.151,20.9
$IMU,30396.705,18.432,23.010,5.859,0.06445,1.05175,0.02246,21.89
$IMU,30396.707,21.118,23.742,3.784,0.06542,1.05175,0.01806,21.88
$IMU,30396.710,23.132,24.719,2.136,0.05859,1.05615,0.01611,21.88
$IMU,30396.712,24.108,25.878,0.488,0.06250,1.06201,0.00830,21.88
$MAG,30396.714,-0.415,-0.567,-0.159,20.7
$IMU,30396.714,24.047,27.343,-1.586,0.06201,1.05273,-0.00048,21.88
$IMU,30396.717,23.742,28.991,-3.601,0.06591,1.04394,-0.00439,21.88
$IMU,30396.719,23.010,31.555,-4.760,0.06005,1.02978,-0.01123,21.88
$BARO,30396.720,86033.80,22.43
$IMU,30396.721,21.972,34.240,-5.920,0.06250,1.02099,-0.01660,21.88
$IMU,30396.724,20.629,37.475,-6.835,0.05371,1.00781,-0.02539,21.88
$MAG,30396.724,-0.418,-0.573,-0.150,20.8
$IMU,30396.726,18.859,41.076,-7.446,0.05664,0.99658,-0.02929,21.87
$IMU,30396.728,16.967,44.067,-8.605,0.05712,0.98681,-0.03955,21.87
$IMU,30396.731,14.953,46.691,-10.070,0.04882,0.98144,-0.04150,21.87
$IMU,30396.733,12.634,48.950,-11.413,0.04052,0.97753,-0.04736,21.87
$MAG,30396.734,-0.412,-0.571,-0.151,20.9
$IMU,30396.735,10.070,50.415,-13.000,0.04052,0.98730,-0.05175,21.87
$IMU,30396.738,7.324,51.452,-15.319,0.03515,0.98974,-0.05078,21.87
$IMU,30396.740,4.577,52.490,-17.272,0.04003,1.00048,-0.05175,21.87
$IMU,30396.742,2.136,52.978,-19.287,0.03857,1.01025,-0.05078,21.87
$MAG,30396.744,-0.426,-0.562,-0.153,20.9
$IMU,30396.745,0.366,53.283,-21.057,0.04687,1.02001,-0.04785,21.85
$IMU,30396.747,-0.366,53.161,-23.010,0.05419,1.03125,-0.04492,21.85
$IMU,30396.749,0.061,53.405,-25.024,0.06396,1.03857,-0.04296,21.85
$IMU,30396.752,1.403,53.894,-26.916,0.07470,1.04492,-0.03759,21.85
$MAG,30396.754,-0.418,-0.570,-0.156,20.9
$IMU,30396.754,3.601,54.565,-29.052,0.07324,1.04150,-0.02441,21.85
$IMU,30396.756,6.164,55.114,-30.944,0.06347,1.04003,-0.01953,21.85
$IMU,30396.759,8.911,55.358,-32.287,0.04736,1.03808,-0.01416,21.85
$IMU,30396.761,11.230,55.053,-33.630,0.03027,1.03271,-0.00830,21.85
$MAG,30396.764,-0.429,-0.562,-0.148,20.9
$IMU,30396.764,12.878,54.199,-34.484,0.00683,1.02441,0.00000,21.91
$IMU,30396.766,13.732,52.917,-34.362,-0.01269,1.02001,0.00732,21.91
$IMU,30396.768,13.854,51.391,-34.179,-0.03369,1.01757,0.00634,21.91
$IMU,30396.771,13.671,49.560,-33.630,-0.04492,1.01318,0.00439,21.91
$IMU,30396.773,13.122,46.936,-32.592,-0.05029,1.00878,-0.00634,21.91
$MAG,30396.775,-0.417,-0.561,-0.142,20.9
$IMU,30396.775,12.268,43.823,-31.188,-0.05419,1.00683,-0.01318,21.91
$IMU,30396.778,11.108,40.161,-29.663,-0.05859,1.00390,-0.02246,21.91
$IMU,30396.780,9.521,36.315,-28.015,-0.04785,1.00683,-0.03076,21.91
$IMU,30396.782,7.751,33.020,-26.977,-0.04003,0.99462,-0.03613,21.90
$MAG,30396.785,-0.414,-0.571,-0.154,20.9
$IMU,30396.785,6.591,29.113,-28.198,-0.02246,0.97558,-0.03906,21.90
$IMU,30396.787,6.652,24.902,-30.456,-0.00488,0.96582,-0.04443,21.90
$IMU,30396.789,7.263,21.179,-32.592,0.00927,0.96630,-0.04638,21.90
$IMU,30396.792,8.483,17.578,-34.545,0.00830,0.97021,-0.04931,21.90
$IMU,30396.794,9.582,14.404,-35.522,-0.00244,0.97998,-0.05078,21.90
$MAG,30396.795,-0.414,-0.562,-0.142,20.9
$IMU,30396.796,10.375,11.230,-34.973,-0.01904,0.98388,-0.05664,21.90
$IMU,30396.799,11.047,7.995,-33.142,-0.03906,0.98730,-0.06005,21.90
$IMU,30396.801,11.352,5.371,-30.273,-0.04589,1.00048,-0.06640,21.85
$IMU,30396.803,11.352,2.441,-26.916,-0.05419,1.00537,-0.06494,21.85
$MAG,30396.805,-0.417,-0.567,-0.148,20.8
$IMU,30396.806,10.986,-0.366,-23.193,-0.04980,1.01904,-0.07275,21.85
$IMU,30396.808,10.314,-2.868,-20.324,-0.04492,1.02392,-0.08007,21.85
$IMU,30396.810,9.460,-4.638,-18.249,-0.03515,1.02197,-0.08056,21.85
$IMU,30396.813,8.605,-6.286,-16.418,-0.03027,1.02539,-0.08398,21.85
$MAG,30396.815,-0.418,-0.555,-0.141,20.9
$IMU,30396.815,7.751,-7.263,-14.892,-0.02246,1.01904,-0.08007,21.85
$IMU,30396.817,7.263,-8.361,-13.916,-0.01513,1.00830,-0.08007,21.85
$IMU,30396.820,6.896,-8.850,-13.671,-0.00634,1.00097,-0.08251,21.89
$BARO,30396.821,86029.02,22.43
$IMU,30396.822,7.019,-8.850,-13.793,-0.00390,0.99414,-0.08447,21.89
$IMU,30396.824,6.713,-8.728,-14.038,-0.00195,0.98974,-0.09082,21.89
$MAG,30396.825,-0.408,-0.558,-0.144,20.9
$IMU,30396.827,5.981,-8.789,-14.404,-0.00732,0.98242,-0.09814,21.89
$IMU,30396.829,5.004,-8.789,-14.404,-0.00683,0.98583,-0.10009,21.89
$IMU,30396.832,3.723,-9.826,-14.160,-0.00585,0.99658,-0.10107,21.89
$IMU,30396.834,-0.488,-13.671,-13.000,0.00048,1.00585,-0.04980,21.89
$MAG,30396.835,-0.409,-0.568,-0.142,20.9
$IMU,30396.836,-10.559,-23.071,-11.047,-0.05224,1.01367,-0.04199,21.89
$IMU,30396.839,-15.869,-28.991,-10.864,-0.04101,1.01904,-0.08007,21.88
$IMU,30396.841,-14.770,-30.151,-11.901,-0.02685,1.02880,-0.09912,21.88
$IMU,30396.843,-10.070,-27.832,-12.817,-0.02246,1.03906,-0.10791,21.88
$MAG,30396.845,-0.403,-0.574,-0.142,20.7
$IMU,30396.846,-4.333,-23.010,-13.122,-0.02587,1.05566,-0.11474,21.88
$IMU,30396.848,0.793,-16.784,-12.390,-0.03662,1.05029,-0.11816,21.88
$IMU,30396.850,5.187,-9.765,-10.192,-0.04248,1.04052,-0.12744,21.88
$IMU,30396.853,8.117,-2.563,-7.690,-0.05517,1.02734,-0.12548,21.88
$MAG,30396.855,-0.412,-0.567,-0.151,20.7
$IMU,30396.855,9.887,4.150,-5.004,-0.06640,1.01855,-0.12060,21.88
$IMU,30396.857,9.948,9.826,-2.807,-0.06689,1.01806,-0.10595,21.87
$IMU,30396.860,8.483,14.465,-1.525,-0.07568,1.01367,-0.08740,21.87
$IMU,30396.862,6.591,17.761,-0.183,-0.08251,1.01171,-0.06835,21.87
$IMU,30396.864,4.638,20.263,1.281,-0.08544,1.01513,-0.04931,21.87
$MAG,30396.865,-0.403,-0.562,-0.148,20.9
$IMU,30396.867,2.563,22.094,2.563,-0.08544,1.02343,-0.03906,21.87
$IMU,30396.869,0.732,22.766,3.295,-0.07958,1.02539,-0.03515,21.87
$IMU,30396.871,-0.610,22.460,3.540,-0.07031,1.02880,-0.03271,21.87
$IMU,30396.874,-1.831,21.606,3.906,-0.06103,1.02197,-0.03662,21.87
$MAG,30396.875,-0.402,-0.559,-0.151,20.8
$IMU,30396.876,-3.356,20.141,4.516,-0.04736,1.01611,-0.03906,21.87
$IMU,30396.878,-5.065,18.310,5.065,-0.03955,1.00976,-0.04101,21.87
$IMU,30396.881,-6.958,16.296,5.615,-0.03125,0.99853,-0.04589,21.87
$IMU,30396.883,-8.728,14.282,5.859,-0.02978,0.99414,-0.04492,21.87
$MAG,30396.885,-0.411,-0.561,-0.141,20.7
$IMU,30396.885,-10.314,12.329,6.042,-0.02832,0.98974,-0.04248,21.87
$IMU,30396.888,-11.657,10.131,5.920,-0.02978,0.99707,-0.03613,21.87
$IMU,30396.890,-12.939,7.629,5.065,-0.02978,0.99707,-0.03320,21.87
$IMU,30396.893,-13.732,5.187,3.967,-0.02685,0.99853,-0.03173,21.87
$IMU,30396.895,-13.854,2.441,2.868,-0.02539,1.00097,-0.03369,21.91
$MAG,30396.896,-0.414,-0.564,-0.144,20.8
$IMU,30396.897,-13.549,-0.122,1.647,-0.01464,1.00244,-0.03222,21.91
$IMU,30396.900,-12.756,-2.319,0.244,-0.00878,1.00634,-0.03222,21.91
$IMU,30396.902,-11.962,-4.638,-1.098,-0.00585,1.00927,-0.03027,21.91
$IMU,30396.904,-10.864,-7.263,-2.502,-0.00292,1.01318,-0.02880,21.91
$MAG,30396.906,-0.411,-0.565,-0.147,20.9
$IMU,30396.907,-9.521,-9.216,-4.638,-0.00097,1.00781,-0.02636,21.91
$IMU,30396.909,-7.873,-10.925,-6.958,-0.00732,1.00585,-0.01708,21.91
$IMU,30396.911,-6.042,-12.329,-9.094,-0.01708,1.00488,-0.00976,21.91
$IMU,30396.914,-4.577,-13.427,-10.681,-0.02587,1.00488,-0.01416,21.89
$MAG,30396.916,-0.415,-0.568,-0.151,20.7
$IMU,30396.916,-3.417,-14.892,-11.901,-0.03417,1.00976,-0.01562,21.89
$IMU,30396.918,-2.441,-16.784,-13.610,-0.04150,1.00439,-0.01806,21.89
$IMU,30396.921,-1.525,-18.127,-15.075,-0.05029,0.99511,-0.02441,21.89
$BARO,30396.923,86023.44,22.43
$IMU,30396.923,-1.098,-19.531,-15.563,-0.05957,0.99707,-0.02636,21.89
$IMU,30396.925,-1.342,-21.240,-15.686,-0.06494,0.99316,-0.03320,21.89
$MAG,30396.926,-0.409,-0.564,-0.150,20.9
$IMU,30396.928,-1.892,-22.583,-15.563,-0.06005,0.98632,-0.03417,21.89
$IMU,30396.930,-2.075,-23.864,-15.625,-0.05322,0.97705,-0.04003,21.89
$IMU,30396.932,-2.441,-24.841,-15.319,-0.04736,0.96923,-0.04931,21.88
$IMU,30396.935,-2.929,-25.329,-14.831,-0.04003,0.97265,-0.05664,21.88
$MAG,30396.936,-0.412,-0.570,-0.153,20.9
$IMU,30396.937,-3.784,-26.123,-14.404,-0.04003,0.96728,-0.06884,21.88
$IMU,30396.939,-5.249,-26.916,-13.977,-0.03369,0.97314,-0.07470,21.88
$IMU,30396.942,-7.080,-27.404,-13.671,-0.03271,0.97119,-0.07177,21.88
$IMU,30396.944,-8.605,-27.770,-13.244,-0.02783,0.97998,-0.06591,21.88
$MAG,30396.946,-0.400,-0.567,-0.150,20.8
$IMU,30396.946,-10.131,-27.893,-12.817,-0.03076,0.98046,-0.06201,21.88
$IMU,30396.949,-11.108,-27.526,-12.023,-0.02832,0.98388,-0.05664,21.88
$IMU,30396.951,-11.657,-27.038,-11.169,-0.03027,0.98388,-0.05273,21.89
$IMU,30396.953,-11.474,-26.855,-10.253,-0.03076,0.98876,-0.04638,21.89
$MAG,30396.956,-0.399,-0.570,-0.150,20.9
$IMU,30396.956,-10.925,-26.611,-9.399,-0.03125,0.99951,-0.04199,21.89
$IMU,30396.958,-10.192,-26.184,-9.765,-0.01464,1.01464,-0.04199,21.89
$IMU,30396.961,-9.948,-25.329,-12.878,-0.00390,1.01513,-0.05029,21.89
$IMU,30396.963,-9.521,-23.681,-16.418,-0.00341,1.02197,-0.05468,21.89
$IMU,30396.965,-8.544,-22.155,-19.531,-0.01025,1.02832,-0.05810,21.89
$MAG,30396.966,-0.393,-0.562,-0.160,20.9
$IMU,30396.968,-7.995,-20.446,-22.399,-0.02832,1.03369,-0.05615,21.89
$IMU,30396.970,-8.239,-18.554,-24.536,-0.04687,1.03222,-0.05419,21.87
$IMU,30396.972,-9.033,-17.150,-26.123,-0.05712,1.03027,-0.04589,21.87
$IMU,30396.975,-10.009,-15.869,-27.160,-0.06787,1.02392,-0.03515,21.87
$MAG,30396.976,-0.394,-0.567,-0.148,20.8
$IMU,30396.977,-10.986,-15.075,-27.282,-0.07861,1.02539,-0.02783,21.87
$IMU,30396.979,-12.207,-14.648,-26.855,-0.07666,1.03125,-0.02001,21.87
$IMU,30396.982,-13.244,-14.465,-25.939,-0.08251,1.03173,-0.02050,21.87
$IMU,30396.984,-14.038,-14.343,-24.536,-0.07958,1.03710,-0.02343,21.87
$MAG,30396.986,-0.390,-0.571,-0.151,20.9
$IMU,30396.986,-15.014,-14.099,-23.437,-0.07666,1.03564,-0.02685,21.87
$IMU,30396.989,-15.686,-13.549,-22.644,-0.07568,1.02832,-0.03320,21.89
$IMU,30396.991,-16.174,-12.695,-21.423,-0.07666,1.02880,-0.04589,21.89
$IMU,30396.993,-16.906,-11.169,-20.141,-0.07470,1.03320,-0.05566,21.89
$MAG,30396.996,-0.385,-0.577,-0.160,20.8
$IMU,30396.996,-18.127,-8.605,-18.859,-0.06689,1.03466,-0.06591,21.89
$IMU,30396.998,-19.226,-5.187,-18.005,-0.06396,1.03662,-0.07861,21.89
$IMU,30397.000,-19.958,-1.037,-17.150,-0.06738,1.03906,-0.08544,21.89
$IMU,30397.003,-20.568,3.479,-15.930,-0.06835,1.05126,-0.09082,21.89
$IMU,30397.005,-20.935,7.751,-14.770,-0.06982,1.05273,-0.09570,21.89
$MAG,30397.006,-0.384,-0.573,-0.156,20.9
$IMU,30397.007,-20.935,11.840,-13.793,-0.07177,1.05175,-0.09423,21.88
