# FlySight Sensor Fusion Export
# Generated: 2026-01-07T07:01:45.758Z
# Algorithm: madgwick
# Source file: SENSOR.CSV
# Frames: 13084
#
# COORDINATE SYSTEMS:
#   Earth Frame (NWU): X=North, Y=West, Z=Up (right-handed)
#   Body Frame: Sensor-fixed frame, orientation depends on mounting
#
# COLUMN DESCRIPTIONS:
#   timestamp: Time since data start
#   r00-r22: Rotation matrix (body-to-earth transform, row-major)
#            To rotate vector v from body to earth: v_earth = R * v_body
#   roll/pitch/yaw: Euler angles (earth frame)
#   accel_body_*: Raw accelerometer reading (body frame)
#   accel_earth_*: Raw accelerometer rotated to earth frame
#   earth_accel_*: Acceleration in earth frame with gravity removed
#   gravity_body_*: Estimated gravity vector in body frame
#   linear_accel_*: Linear acceleration in body frame (gravity removed)
#   gyro_*: Angular velocity (body frame)
#   q*: Orientation quaternion (body-to-earth, scalar-first: w,x,y,z)
#
timestamp,r00,r01,r02,r10,r11,r12,r20,r21,r22,roll,pitch,yaw,accel_body_x,accel_body_y,accel_body_z,accel_earth_x,accel_earth_y,accel_earth_z,earth_accel_x,earth_accel_y,earth_accel_z,gravity_body_x,gravity_body_y,gravity_body_z,linear_accel_x,linear_accel_y,linear_accel_z,gyro_x,gyro_y,gyro_z,qw,qx,qy,qz
s,-,-,-,-,-,-,-,-,-,deg,deg,deg,g,g,g,g,g,g,g,g,g,g,g,g,g,g,g,deg/s,deg/s,deg/s,-,-,-,-
152650.465000,0.258038,0.441375,-0.859421,-0.214593,0.893509,0.394451,0.942001,0.082643,0.325275,0.2488,-1.2285,-0.6937,0.074700,0.247550,0.761230,-0.525679,0.505426,0.338435,0.000386,-0.016363,-0.210051,0.082643,0.325275,0.942001,-0.031809,-0.075110,-0.194258,10.6810,-17.7000,-44.1890,0.786896,-0.099063,-0.572319,-0.208404
152650.540000,0.233908,0.570378,-0.787373,-0.227130,0.819487,0.526168,0.945356,0.055761,0.321235,0.1719,-1.2387,-0.7707,-0.117670,0.214350,0.911130,-0.622662,0.681791,0.193399,-0.047796,-0.208597,-0.089250,0.055761,0.321235,0.945356,-0.203181,-0.100794,-0.048174,7.5680,-69.8240,-104.1250,0.770492,-0.152632,-0.562215,-0.258766
152650.615000,0.078299,0.598352,-0.797398,-0.319288,0.772773,0.548522,0.944417,0.211651,0.251555,0.6995,-1.2358,-1.3303,0.187980,0.090820,0.918450,-0.663309,0.513954,0.427794,0.092470,-0.117369,-0.088923,0.211651,0.251555,0.944417,-0.054190,-0.160484,-0.039265,-23.5590,-105.9570,-18.1270,0.725022,-0.116159,-0.600608,-0.316418
152650.690000,-0.072637,0.577358,-0.813254,-0.490039,0.689535,0.533294,0.868669,0.437263,0.232842,1.0815,-1.0525,-1.7180,0.708490,0.268550,0.758300,-0.513103,0.242383,0.909435,0.134818,0.247106,0.007666,0.437263,0.232842,0.868669,0.251579,0.023924,-0.124225,-21.9110,-111.1450,-1.9530,0.680026,-0.035304,-0.618330,-0.392410
152650.765000,-0.138380,0.557204,-0.818764,-0.590536,0.617252,0.519873,0.795059,0.555450,0.243633,1.1574,-0.9191,-1.8010,0.893060,0.386230,0.718260,-0.496459,0.084421,1.099559,0.089164,0.318391,0.137180,0.555450,0.243633,0.795059,0.322406,0.125940,-0.091293,-14.8920,-34.3620,-3.6620,0.656221,0.013554,-0.614817,-0.437253
152650.840000,-0.098936,0.589368,-0.801784,-0.504025,0.665054,0.551056,0.858004,0.458638,0.231258,1.1038,-1.0314,-1.7646,0.512690,0.302240,0.798820,-0.513074,0.382792,0.763242,-0.023925,0.093506,-0.033362,0.458638,0.231258,0.858004,0.032784,0.062995,-0.073387,-21.7890,63.1100,3.7840,0.670331,-0.034467,-0.619018,-0.407781
152650.915000,-0.095610,0.594385,-0.798477,-0.356196,0.728608,0.585025,0.929507,0.340349,0.142055,1.1754,-1.1931,-1.8330,0.173330,-0.166990,0.985350,-0.902608,0.393045,0.244251,0.119213,-0.344004,-0.072338,0.340349,0.142055,0.929507,-0.204406,-0.306716,0.043896,-33.8740,69.0300,-3.1730,0.666156,-0.091824,-0.648491,-0.356741
152650.990000,-0.118702,0.600049,-0.791107,-0.320522,0.730931,0.602499,0.939774,0.325085,0.105566,1.2568,-1.2220,-1.9255,0.322260,-0.019040,0.989740,-0.832668,0.479109,0.401145,0.074071,-0.115103,0.009442,0.325085,0.105566,0.939774,-0.036617,-0.126950,0.036974,-6.1640,2.9900,-15.2580,0.655324,-0.105831,-0.660316,-0.351190
152651.065000,-0.170193,0.603799,-0.778756,-0.421000,0.669977,0.611466,0.890951,0.431923,0.140174,1.2570,-1.0994,-1.9550,0.641110,0.160150,0.916990,-0.726525,0.398098,0.768908,0.100895,0.123088,0.091039,0.431923,0.140174,0.890951,0.182708,0.009452,0.012119,3.5400,-27.3430,-30.6390,0.640304,-0.070101,-0.651919,-0.400122
152651.140000,-0.107559,0.677663,-0.727464,-0.429218,0.628355,0.648800,0.896774,0.382025,0.223280,1.0419,-1.1124,-1.8163,0.379880,0.230950,0.823730,-0.483587,0.516504,0.612817,-0.010700,0.022800,-0.087223,0.382025,0.223280,0.896774,-0.026246,0.003102,-0.086855,-0.1220,14.5260,-50.5980,0.660317,-0.101003,-0.614946,-0.419071
152651.215000,-0.067818,0.734267,-0.675465,-0.346698,0.617488,0.706052,0.935522,0.282065,0.212692,0.9247,-1.2097,-1.7640,0.229980,0.180660,0.859860,-0.463749,0.638927,0.448995,-0.029636,-0.041196,-0.112836,0.282065,0.212692,0.935522,-0.079026,-0.033067,-0.089268,-23.0100,31.6160,-49.2550,0.663770,-0.159689,-0.606756,-0.407131
152651.290000,-0.095145,0.751210,-0.653170,-0.268829,0.612378,0.743454,0.958477,0.246327,0.143682,1.0427,-1.2816,-1.9110,0.230460,0.062010,0.943840,-0.591833,0.677721,0.371778,0.020824,-0.082717,-0.050233,0.246327,0.143682,0.958477,-0.047385,-0.082316,-0.027891,-37.6580,13.4880,-25.3290,0.644382,-0.192870,-0.625268,-0.395743
152651.365000,-0.118459,0.787980,-0.604197,-0.210284,0.574772,0.790833,0.970437,0.220735,0.097613,1.1544,-1.3270,-2.0838,0.123530,-0.003900,0.839840,-0.525135,0.635955,0.200996,-0.024306,-0.121204,-0.176440,0.220735,0.097613,0.970437,-0.127764,-0.098390,-0.142857,-27.4650,-6.8350,-52.7950,0.623283,-0.228668,-0.631589,-0.400406
152651.441000,-0.164835,0.824289,-0.541643,-0.244765,0.497791,0.832042,0.955468,0.269725,0.119704,1.1531,-1.2712,-2.1635,0.221670,-0.047360,0.806640,-0.512488,0.593326,0.295582,0.051874,-0.137193,-0.194362,0.269725,0.119704,0.955468,-0.077958,-0.165514,-0.160677,18.0050,-30.2730,-81.1760,0.602632,-0.233276,-0.621072,-0.443494
152651.516000,-0.176831,0.858854,-0.480729,-0.427786,0.372814,0.823413,0.886414,0.351254,0.301481,0.8615,-1.0895,-1.9628,0.296870,0.166010,0.698730,-0.245817,0.510237,0.532115,0.035183,-0.055423,-0.245821,0.351254,0.301481,0.886414,-0.076791,-0.136660,-0.200412,69.7630,-38.7570,-92.5290,0.611854,-0.192921,-0.558606,-0.525713
152651.591000,-0.111508,0.932286,-0.344105,-0.617460,0.206317,0.759063,0.778659,0.297113,0.552643,0.4933,-0.8925,-1.7495,0.353510,0.587400,0.888670,0.202410,0.577469,0.940905,0.014897,-0.029472,0.098918,0.297113,0.552643,0.778659,0.037197,0.027169,0.093560,96.6180,-19.5310,-128.2340,0.641766,-0.179953,-0.437373,-0.603704
152651.666000,-0.029141,0.985882,-0.164886,-0.685925,0.100265,0.720731,0.727088,0.134102,0.673320,0.1966,-0.8141,-1.6133,-0.124510,0.376460,0.582510,0.278726,0.542983,0.352170,-0.220031,-0.128056,-0.346834,0.134102,0.673320,0.727088,-0.276276,-0.289544,-0.157930,78.0020,-21.0570,-105.6510,0.660387,-0.222078,-0.337671,-0.632889
152651.741000,-0.080243,0.996690,-0.013077,-0.838955,-0.060448,0.540833,0.538252,0.054369,0.841028,0.0646,-0.5684,-1.6662,-0.003410,0.785150,0.520990,0.776011,0.237168,0.479020,-0.061624,0.002223,-0.067063,0.054369,0.841028,0.538252,-0.065200,-0.054394,-0.033017,111.6940,-72.3870,-101.8670,0.651985,-0.186532,-0.211404,-0.703868
152651.816000,-0.251724,0.966270,0.054379,-0.911716,-0.255612,0.321615,0.324667,0.031380,0.945308,0.0332,-0.3307,-1.8402,0.162100,1.263180,0.482910,1.206029,-0.315362,0.548766,0.111790,-0.061298,0.344204,0.031380,0.945308,0.324667,0.134489,0.311744,0.139497,105.6510,-103.8810,-107.0550,0.599577,-0.121016,-0.112699,-0.783046
152651.891000,-0.426241,0.898946,0.101065,-0.857186,-0.437065,0.272409,0.289053,0.029480,0.956859,0.0308,-0.2932,-2.0322,0.238760,1.157220,0.422850,0.981245,-0.595255,0.507737,0.161727,-0.139773,0.225345,0.029480,0.956859,0.289053,0.213117,0.193893,0.116014,52.3680,-114.5010,-105.5290,0.522865,-0.116153,-0.089883,-0.839667
152651.966000,-0.580876,0.808342,0.095743,-0.766237,-0.582697,0.270824,0.274708,0.083954,0.957856,0.0874,-0.2783,-2.2195,0.268550,1.183100,0.348140,0.833687,-0.800877,0.506566,0.142995,-0.095014,0.240629,0.083954,0.957856,0.274708,0.191155,0.218446,0.055844,18.1270,-111.7550,-61.6450,0.445613,-0.104839,-0.100404,-0.883378
152652.041000,-0.709097,0.701570,0.070577,-0.657348,-0.693956,0.293802,0.255100,0.161940,0.953257,0.1683,-0.2580,-2.3940,0.127440,1.001460,0.242670,0.629354,-0.707444,0.426014,0.002745,0.052745,0.032806,0.161940,0.953257,0.255100,-0.029364,0.046963,-0.028249,2.0140,-102.5390,-23.1320,0.370879,-0.088884,-0.124382,-0.916012
152652.116000,-0.803962,0.587659,0.091115,-0.558024,-0.798459,0.225995,0.205560,0.130847,0.969858,0.1341,-0.2070,-2.5348,0.051750,0.860350,0.208980,0.483029,-0.668603,0.325892,-0.045504,0.042821,-0.116603,0.130847,0.969858,0.205560,-0.076189,-0.107557,-0.011281,21.3010,-108.9470,-14.3430,0.303083,-0.078484,-0.094400,-0.945024
152652.191000,-0.898503,0.438811,0.011690,-0.431660,-0.888073,0.158100,0.079758,0.137007,0.987354,0.1379,-0.0798,-2.6937,0.104000,0.893060,0.143550,0.300119,-0.815300,0.272385,-0.057295,-0.011678,-0.091954,0.137007,0.987354,0.079758,-0.027369,-0.093308,0.049186,58.8370,-114.0740,-39.0620,0.224041,-0.023537,-0.075954,-0.971330
152652.266000,-0.945819,0.324520,-0.010684,-0.323567,-0.939280,0.114271,0.027047,0.111537,0.993392,0.1118,-0.0271,-2.8120,0.147460,1.134270,0.151850,0.227000,-1.095758,0.281348,-0.089167,-0.062688,0.145889,0.111537,0.993392,0.027047,0.046217,0.138714,0.108565,66.1010,-91.4910,-48.6450,0.164540,-0.004154,-0.057329,-0.984694
152652.341000,-0.963961,0.259039,0.060653,-0.256039,-0.965211,0.053019,0.072277,0.035579,0.996750,0.0357,-0.0723,-2.8820,0.005370,1.212400,0.173820,0.319425,-1.162381,0.216779,-0.073740,0.008911,0.220545,0.035579,0.996750,0.072277,-0.019856,0.215828,0.084741,15.0750,-52.0010,-28.8080,0.129979,-0.033544,-0.022357,-0.990697
152652.416000,-0.963805,0.203652,0.172063,-0.204129,-0.978827,0.015105,0.171496,-0.020565,0.984970,-0.0209,-0.1723,-2.9329,-0.075190,1.020500,0.145990,0.305415,-0.981340,0.109915,0.036479,0.055597,0.032784,-0.020565,0.984970,0.171496,-0.047665,0.039408,-0.040885,-41.4420,-33.5690,-9.5820,0.102881,-0.086678,0.001377,-0.990909
152652.492000,-0.981947,0.157357,0.104971,-0.166723,-0.982128,-0.087338,0.089351,-0.103262,0.990633,-0.1039,-0.0895,-2.9734,-0.278800,1.080560,-0.069820,0.436472,-1.008668,-0.205658,0.155483,0.180080,0.099830,-0.103262,0.990633,0.089351,-0.162704,0.099488,-0.173779,0.4270,-31.3110,-22.2770,0.081483,-0.048858,0.047922,-0.994322
152652.567000,-0.995206,0.097491,-0.007722,-0.096563,-0.992085,-0.080264,-0.015486,-0.079134,0.996744,-0.0792,0.0155,-3.0449,-0.042960,0.903320,-0.039550,0.131125,-0.888848,-0.110239,0.042758,-0.035105,-0.090622,-0.079134,0.996744,-0.015486,0.046167,-0.087839,-0.037760,28.6250,-38.6350,-33.8740,0.048611,0.005814,0.039929,-0.998002
152652.642000,-0.993270,0.065268,-0.095679,-0.065474,-0.997854,-0.000983,-0.095538,0.005288,0.995412,0.0053,0.0957,-3.0758,-0.045890,1.098140,-0.053220,0.122347,-1.092726,-0.042785,-0.039873,0.035110,0.103471,0.005288,0.995412,-0.095538,-0.037090,0.106777,0.027421,37.1090,-10.8030,12.5730,0.032741,0.047885,-0.001078,-0.998316
152652.717000,-0.995449,0.059632,-0.074333,-0.065671,-0.994497,0.081627,-0.069056,0.086137,0.993887,0.0865,0.0691,-3.0757,0.034660,1.082030,-0.002440,0.030203,-1.078551,0.088384,-0.060306,0.042377,0.082702,0.086137,0.993887,-0.069056,-0.038616,0.090139,0.051538,24.7190,5.2490,26.6110,0.031389,0.035920,-0.042026,-0.997977
152652.792000,-0.991137,0.060931,-0.118048,-0.065440,-0.997253,0.034704,-0.115609,0.042121,0.992401,0.0424,0.1159,-3.0757,-0.001950,1.111320,-0.092280,0.080540,-1.111342,-0.044543,-0.024601,0.032003,0.119051,0.042121,0.992401,-0.115609,-0.028399,0.122161,0.008525,18.1270,4.5770,14.0380,0.031669,0.058555,-0.019252,-0.997596
152652.867000,-0.994260,0.053325,-0.092751,-0.060787,-0.994974,0.079575,-0.088042,0.084757,0.992504,0.0852,0.0882,-3.0805,0.039550,0.999510,-0.064450,0.019954,-1.002019,0.017266,-0.011959,0.032271,0.006455,0.084757,0.992504,-0.088042,-0.032199,0.010084,0.009361,7.4460,3.1730,6.9580,0.028593,0.045302,-0.041177,-0.997715
152652.942000,-0.994650,0.054256,-0.087903,-0.054392,-0.998519,-0.000845,-0.087818,0.003941,0.996129,0.0040,0.0879,-3.0870,-0.029290,1.021970,-0.070310,0.090762,-1.018804,-0.063438,-0.006922,0.019808,0.029837,0.003941,0.996129,-0.087818,-0.020037,0.030313,0.003187,3.6010,1.5250,-2.2580,0.027198,0.043989,-0.000775,-0.998661
152653.017000,-0.993438,0.037489,-0.108057,-0.044111,-0.997250,0.059552,-0.105527,0.063928,0.992359,0.0643,0.1057,-3.0972,0.015620,1.041990,-0.090330,0.033307,-1.045193,-0.024676,-0.007829,0.036947,0.050409,0.063928,0.992359,-0.105527,-0.033916,0.053070,0.000829,3.9060,0.8540,2.7460,0.020443,0.053510,-0.030935,-0.997879
152653.092000,-0.995360,0.032786,-0.090463,-0.035248,-0.999047,0.025747,-0.089532,0.028816,0.995567,0.0289,0.0897,-3.1062,0.009760,1.017080,-0.079100,0.030787,-1.018491,-0.050315,0.001349,0.006264,0.025290,0.028816,0.995567,-0.089532,-0.005485,0.025217,-0.003828,0.0610,-0.1220,0.0000,0.017030,0.045055,-0.013658,-0.998746
152653.167000,-0.996401,0.018042,-0.082817,-0.022547,-0.998298,0.053791,-0.081706,0.055465,0.995112,0.0557,0.0818,-3.1190,0.014160,0.992670,-0.067870,0.009421,-0.994950,-0.013637,-0.000299,0.028513,-0.000268,0.055465,0.995112,-0.081706,-0.028485,0.001292,-0.000323,-0.5490,-0.3050,-0.7320,0.010160,0.041183,-0.027349,-0.998726
152653.242000,-0.995096,0.010327,-0.098378,-0.013811,-0.999299,0.034794,-0.097950,0.035982,0.994541,0.0362,0.0981,-3.1277,0.012690,1.021970,-0.083000,0.006092,-1.024317,-0.047017,-0.003826,0.010568,0.030477,0.035982,0.994541,-0.097950,-0.009503,0.031055,0.000676,0.8540,0.0000,0.6100,0.006043,0.049150,-0.017719,-0.998616
152653.317000,-0.996238,0.002189,-0.086632,-0.005415,-0.999300,0.037018,-0.086491,0.037348,0.995552,0.0375,0.0866,-3.1362,0.010250,1.004390,-0.074700,-0.001542,-1.006508,-0.037742,0.001277,0.014359,0.012242,0.037348,0.995552,-0.086491,-0.013888,0.012609,-0.002409,-0.1220,-0.1830,-0.1830,0.001903,0.043329,-0.018612,-0.998886
152653.392000,-0.995633,-0.004802,-0.093226,0.001208,-0.999255,0.038569,-0.093342,0.038288,0.994898,0.0385,0.0935,3.1404,0.013670,1.013180,-0.079100,-0.011101,-1.015460,-0.041180,-0.001997,0.011936,0.021396,0.038288,0.994898,-0.093342,-0.011099,0.021933,0.000006,0.3050,-0.1220,0.1830,-0.001504,0.046702,-0.019239,-0.998722
152653.468000,-0.995891,-0.012518,-0.089696,0.008890,-0.999131,0.040727,-0.090127,0.039762,0.995136,0.0399,0.0902,3.1327,0.013670,1.008780,-0.077140,-0.019322,-1.010923,-0.037885,-0.000169,0.013395,0.016839,0.039762,0.995136,-0.090127,-0.012711,0.017318,-0.001230,0.1830,-0.1220,0.0610,-0.005359,0.045011,-0.020147,-0.998769
152653.543000,-0.995537,-0.018989,-0.092439,0.015532,-0.999158,0.037981,-0.093082,0.036376,0.994994,0.0365,0.0932,3.1260,0.013180,1.010250,-0.079100,-0.024993,-1.012199,-0.043182,-0.001333,0.010444,0.018516,0.036376,0.994994,-0.093082,-0.009736,0.018944,-0.000235,0.3050,-0.0610,0.1220,-0.008641,0.046440,-0.018613,-0.998710
152653.618000,-0.995415,-0.023783,-0.092650,0.020453,-0.999116,0.036725,-0.093441,0.034662,0.995021,0.0348,0.0936,3.1210,0.013670,1.010740,-0.080070,-0.030228,-1.012508,-0.045915,-0.000779,0.008181,0.019121,0.034662,0.995021,-0.093441,-0.007493,0.019398,-0.000844,0.3050,-0.0610,0.1220,-0.011074,0.046584,-0.017870,-0.998693
152653.693000,-0.995216,-0.028340,-0.093498,0.024920,-0.998984,0.037543,-0.094467,0.035033,0.994911,0.0352,0.0946,3.1166,0.014160,1.010250,-0.081050,-0.035144,-1.011914,-0.046583,-0.000783,0.008040,0.018739,0.035033,0.994911,-0.094467,-0.007354,0.019019,-0.000790,0.2440,-0.1220,0.0610,-0.013333,0.047056,-0.018169,-0.998638
152653.768000,-0.995052,-0.034057,-0.093334,0.030364,-0.998710,0.040698,-0.094600,0.037663,0.994803,0.0378,0.0947,3.1111,0.014640,1.009760,-0.081050,-0.041392,-1.011311,-0.043983,-0.000763,0.010236,0.018238,0.037663,0.994803,-0.094600,-0.009510,0.018631,-0.000655,0.3050,-0.1220,0.1220,-0.016128,0.047051,-0.019618,-0.998570
152653.843000,-0.994760,-0.038419,-0.094741,0.034902,-0.998649,0.038500,-0.096092,0.034992,0.994757,0.0352,0.0962,3.1065,0.015130,1.010250,-0.082510,-0.046046,-1.011534,-0.048181,-0.000958,0.007004,0.018901,0.034992,0.994757,-0.096092,-0.006297,0.019162,-0.000618,0.3050,-0.0610,0.0610,-0.018357,0.047779,-0.018400,-0.998520
152653.918000,-0.994668,-0.042101,-0.094145,0.038587,-0.998500,0.038838,-0.095639,0.034998,0.994801,0.0352,0.0958,3.1028,0.015620,1.010740,-0.082510,-0.050322,-1.011826,-0.048201,-0.000531,0.006512,0.019391,0.034998,0.994801,-0.095639,-0.005801,0.019593,-0.001075,0.2440,-0.0610,0.0610,-0.020202,0.047517,-0.018487,-0.998495
152653.993000,-0.994324,-0.047199,-0.095354,0.043360,-0.998179,0.041939,-0.097160,0.037566,0.994560,0.0378,0.0973,3.0980,0.015620,1.009760,-0.083490,-0.055230,-1.010745,-0.046621,-0.000885,0.009114,0.018504,0.037566,0.994560,-0.097160,-0.008361,0.018870,-0.000523,0.2440,-0.1220,0.0610,-0.022676,0.048207,-0.019908,-0.998381
152654.068000,-0.994321,-0.047298,-0.095336,0.044322,-0.998469,0.033106,-0.096756,0.028692,0.994895,0.0288,0.0969,3.0970,0.016600,1.010250,-0.083980,-0.056283,-1.010747,-0.056171,-0.000474,-0.000953,0.019087,0.028692,0.994895,-0.096756,0.001522,0.019003,-0.001418,0.1830,-0.1220,0.0610,-0.022940,0.048097,-0.015473,-0.998459
152654.143000,-0.994154,-0.049483,-0.095961,0.045895,-0.998175,0.039245,-0.097728,0.034612,0.994611,0.0348,0.0979,3.0955,0.017080,1.008780,-0.084470,-0.058792,-1.009470,-0.050768,-0.000597,0.004579,0.017680,0.034612,0.994611,-0.097728,-0.003930,0.017822,-0.000924,0.1830,-0.1220,0.0610,-0.023884,0.048502,-0.018494,-0.998366
152654.218000,-0.994060,-0.052499,-0.095331,0.048821,-0.997985,0.040519,-0.097266,0.035624,0.994621,0.0358,0.0974,3.0925,0.017080,1.009270,-0.083980,-0.061959,-1.009806,-0.049235,-0.000588,0.005634,0.018108,0.035624,0.994621,-0.097266,-0.004946,0.018295,-0.000901,0.3050,-0.0610,0.1220,-0.025372,0.048230,-0.019068,-0.998332
152654.293000,-0.993646,-0.055400,-0.097977,0.051546,-0.997810,0.041441,-0.100058,0.036127,0.994325,0.0363,0.1002,3.0898,0.018060,1.010740,-0.086420,-0.065473,-1.011177,-0.051221,-0.001178,0.005161,0.019827,0.036127,0.994325,-0.100058,-0.004368,0.020043,-0.000547,0.3660,-0.0610,0.1830,-0.026784,0.049597,-0.019427,-0.998221
152654.368000,-0.993529,-0.057686,-0.097837,0.053955,-0.997727,0.040368,-0.099944,0.034828,0.994383,0.0350,0.1001,3.0873,0.018060,1.009760,-0.086910,-0.067689,-1.009999,-0.053059,-0.000548,0.003773,0.018918,0.034828,0.994383,-0.099944,-0.003074,0.019018,-0.001143,0.2440,-0.1220,0.0610,-0.027960,0.049534,-0.018833,-0.998203
152654.443000,-0.993460,-0.059988,-0.097153,0.056186,-0.997561,0.041410,-0.099400,0.035681,0.994408,0.0359,0.0996,3.0851,0.018550,1.009270,-0.086420,-0.070577,-1.009345,-0.051769,-0.000401,0.004147,0.018385,0.035681,0.994408,-0.099400,-0.003457,0.018493,-0.001196,0.1830,-0.1220,0.0610,-0.029097,0.049228,-0.019308,-0.998177
152654.519000,-0.993121,-0.063637,-0.098289,0.059473,-0.997227,0.044739,-0.100864,0.038586,0.994152,0.0388,0.1010,3.0818,0.019040,1.009760,-0.087400,-0.074577,-1.009738,-0.049847,-0.000813,0.006635,0.018965,0.038586,0.994152,-0.100864,-0.005833,0.019231,-0.000710,0.2440,-0.1220,0.0610,-0.030837,0.049885,-0.020872,-0.998061
152654.594000,-0.993073,-0.064101,-0.098473,0.060599,-0.997433,0.038153,-0.100666,0.031921,0.994408,0.0321,0.1008,3.0806,0.019040,1.009270,-0.087890,-0.074948,-1.008878,-0.057098,-0.000492,-0.000213,0.018556,0.031921,0.994408,-0.100666,0.000836,0.018493,-0.001393,0.1830,-0.1220,0.0610,-0.031234,0.049879,-0.017552,-0.998112
152654.669000,-0.992694,-0.069140,-0.098882,0.064390,-0.996649,0.050452,-0.102038,0.043716,0.993819,0.0440,0.1022,3.0768,0.020500,1.009760,-0.088370,-0.081427,-1.009514,-0.045773,-0.000779,0.010390,0.019054,0.043716,0.993819,-0.102038,-0.009468,0.019538,-0.000502,0.2440,-0.1220,0.0610,-0.033453,0.050336,-0.023592,-0.997893
152654.744000,-0.992497,-0.070810,-0.099682,0.066947,-0.996890,0.041585,-0.102316,0.034600,0.994150,0.0348,0.1025,3.0742,0.020010,1.009760,-0.089350,-0.082455,-1.008995,-0.055937,-0.000669,0.001534,0.019208,0.034600,0.994150,-0.102316,-0.000818,0.019226,-0.001199,0.2440,-0.1220,0.0610,-0.034510,0.050604,-0.019086,-0.997940
152654.819000,-0.992146,-0.075151,-0.099989,0.070494,-0.996292,0.049324,-0.103325,0.041888,0.993765,0.0421,0.1035,3.0707,0.020500,1.009760,-0.089840,-0.087240,-1.009002,-0.049101,-0.000716,0.008491,0.019233,0.041888,0.993765,-0.103325,-0.007600,0.019603,-0.000678,0.2440,-0.1220,0.0610,-0.036492,0.050942,-0.022854,-0.997773
152654.894000,-0.992395,-0.070999,-0.100554,0.068037,-0.997150,0.032593,-0.102582,0.025503,0.994398,0.0256,0.1028,3.0731,0.021480,1.009270,-0.090330,-0.083891,-1.007877,-0.066288,-0.000660,-0.009275,0.018808,0.025503,0.994398,-0.102582,0.009775,0.018467,-0.001906,0.1830,-0.1830,0.0610,-0.034829,0.050886,-0.014553,-0.997991
152654.969000,-0.992079,-0.074951,-0.100802,0.070028,-0.996213,0.051527,-0.104282,0.044060,0.993571,0.0443,0.1045,3.0711,0.021970,1.009270,-0.090820,-0.088287,-1.008589,-0.048059,-0.000636,0.009189,0.018870,0.044060,0.993571,-0.104282,-0.008275,0.019286,-0.000693,0.1830,-0.1830,0.0610,-0.036327,0.051388,-0.023951,-0.997730
152655.044000,-0.992109,-0.074079,-0.101157,0.070365,-0.996727,0.039813,-0.103775,0.032381,0.994074,0.0326,0.1040,3.0708,0.022460,1.009270,-0.091300,-0.087813,-1.008021,-0.060409,-0.000524,-0.003268,0.018966,0.032381,0.994074,-0.103775,0.003910,0.018776,-0.001678,0.1830,-0.1830,0.0610,-0.036188,0.051343,-0.018087,-0.997861
152655.119000,-0.991925,-0.075952,-0.101565,0.071446,-0.996323,0.047290,-0.104784,0.039652,0.993704,0.0399,0.1050,3.0697,0.022460,1.008780,-0.091790,-0.089574,-1.007807,-0.053566,-0.000496,0.004145,0.018534,0.039652,0.993704,-0.104784,-0.003357,0.018664,-0.001154,0.1220,-0.1220,0.0000,-0.036933,0.051704,-0.021785,-0.997741
152655.194000,-0.991892,-0.075662,-0.102105,0.071626,-0.996520,0.042642,-0.104976,0.034983,0.993859,0.0352,0.1052,3.0695,0.022940,1.008300,-0.092280,-0.089622,-1.007083,-0.058848,-0.000543,-0.001128,0.018130,0.034983,0.993859,-0.104976,0.001799,0.018026,-0.001446,0.1830,-0.1220,0.0610,-0.036904,0.051885,-0.019449,-0.997781
152655.269000,-0.991745,-0.075552,-0.103600,0.071275,-0.996469,0.044386,-0.106588,0.036635,0.993628,0.0369,0.1068,3.0698,0.023430,1.009270,-0.093750,-0.089777,-1.008197,-0.058675,-0.000751,0.000064,0.019260,0.036635,0.993628,-0.106588,0.000698,0.019218,-0.001303,0.2440,-0.1220,0.0610,-0.036790,0.052667,-0.020301,-0.997728
152655.344000,-0.991819,-0.074978,-0.103313,0.070769,-0.996530,0.043821,-0.106240,0.036151,0.993683,0.0364,0.1064,3.0704,0.023920,1.008780,-0.093750,-0.089675,-1.007695,-0.059230,-0.000419,-0.000959,0.018784,0.036151,0.993683,-0.106240,0.001666,0.018667,-0.001648,0.1830,-0.1220,0.0610,-0.036519,0.052507,-0.020038,-0.997751
152655.419000,-0.991765,-0.075050,-0.103779,0.070703,-0.996484,0.044955,-0.106788,0.037248,0.993584,0.0375,0.1070,3.0704,0.023920,1.009270,-0.094230,-0.089690,-1.008266,-0.058587,-0.000475,0.000164,0.019323,0.037248,0.993584,-0.106788,0.000592,0.019255,-0.001581,0.1220,-0.1830,0.0000,-0.036521,0.052762,-0.020598,-0.997726
152655.495000,-0.991520,-0.076919,-0.104744,0.072024,-0.996162,0.049743,-0.108169,0.041777,0.993254,0.0420,0.1084,3.0691,0.024900,1.008780,-0.095210,-0.092310,-1.007851,-0.055117,-0.000611,0.003788,0.018960,0.041777,0.993254,-0.108169,-0.002934,0.019085,-0.001172,0.1220,-0.1830,0.0000,-0.037325,0.053356,-0.022935,-0.997614
152655.570000,-0.991407,-0.078767,-0.104445,0.073948,-0.996046,0.049243,-0.107911,0.041096,0.993311,0.0413,0.1081,3.0671,0.024900,1.008780,-0.095210,-0.094200,-1.007638,-0.055803,-0.000392,0.003075,0.018963,0.041096,0.993311,-0.107911,-0.002253,0.019028,-0.001430,0.1220,-0.1220,0.0000,-0.038271,0.053217,-0.022639,-0.997592
152655.645000,-0.991262,-0.080637,-0.104395,0.075809,-0.995897,0.049422,-0.107952,0.041076,0.993307,0.0413,0.1082,3.0653,0.024900,1.008780,-0.095210,-0.096088,-1.007459,-0.055824,-0.000430,0.003059,0.018963,0.041076,0.993307,-0.107952,-0.002233,0.019032,-0.001389,0.1220,-0.1830,0.0000,-0.039207,0.053217,-0.022680,-0.997555
152655.720000,-0.991284,-0.079660,-0.104930,0.075366,-0.996172,0.044277,-0.108055,0.035982,0.993493,0.0362,0.1083,3.0657,0.025390,1.008780,-0.095700,-0.095486,-1.007243,-0.061522,-0.000487,-0.002654,0.019028,0.035982,0.993493,-0.108055,0.003367,0.018838,-0.001773,0.1220,-0.1830,0.0000,-0.038849,0.053374,-0.020113,-0.997616
152655.795000,-0.991025,-0.081591,-0.105885,0.076418,-0.995717,0.052034,-0.109677,0.043476,0.993016,0.0438,0.1099,3.0646,0.025870,1.008300,-0.096670,-0.097670,-1.007035,-0.054995,-0.000595,0.004506,0.018669,0.043476,0.993016,-0.109677,-0.003626,0.018836,-0.001114,0.1220,-0.1220,0.0000,-0.039603,0.054027,-0.023938,-0.997467
152655.870000,-0.990971,-0.082519,-0.105673,0.077717,-0.995781,0.048793,-0.109253,0.040140,0.993203,0.0404,0.1095,3.0633,0.025870,1.007810,-0.096670,-0.098585,-1.006264,-0.058386,-0.000374,0.001066,0.018196,0.040140,0.993203,-0.109253,-0.000300,0.018164,-0.001534,0.1220,-0.1220,0.0000,-0.040160,0.053867,-0.022289,-0.997491
152655.945000,-0.990801,-0.084157,-0.105979,0.079053,-0.995540,0.051482,-0.109839,0.042630,0.993035,0.0429,0.1101,3.0620,0.026360,1.009270,-0.097160,-0.100757,-1.007687,-0.056353,-0.000473,0.003149,0.019697,0.042630,0.993035,-0.109839,-0.002256,0.019772,-0.001446,0.1220,-0.1220,0.0000,-0.040908,0.054094,-0.023589,-0.997419
152656.020000,-0.990906,-0.082959,-0.105936,0.078472,-0.995861,0.045855,-0.109301,0.037125,0.993315,0.0374,0.1095,3.0626,0.026850,1.008300,-0.097160,-0.099961,-1.006475,-0.062012,-0.000311,-0.003015,0.018750,0.037125,0.993315,-0.109301,0.003724,0.018519,-0.001978,0.0610,-0.1220,0.0000,-0.040459,0.053944,-0.020797,-0.997507
152656.095000,-0.990870,-0.083365,-0.105958,0.078339,-0.995634,0.050757,-0.109726,0.041993,0.993074,0.0423,0.1099,3.0627,0.027340,1.008300,-0.097160,-0.100853,-1.006687,-0.057146,-0.000394,0.001478,0.018762,0.041993,0.993074,-0.109726,-0.000651,0.018749,-0.001553,0.1220,-0.1830,0.0000,-0.040530,0.054059,-0.023247,-0.997444
152656.170000,-0.990873,-0.082466,-0.106633,0.077807,-0.995853,0.047141,-0.110078,0.038414,0.993180,0.0387,0.1103,3.0632,0.027340,1.007810,-0.097650,-0.099788,-1.006107,-0.061280,-0.000509,-0.002195,0.018335,0.038414,0.993180,-0.110078,0.002932,0.018161,-0.001685,0.1220,-0.1220,0.0000,-0.040169,0.054315,-0.021443,-0.997485
152656.245000,-0.990431,-0.085335,-0.108467,0.079681,-0.995278,0.055437,-0.112686,0.046264,0.992553,0.0466,0.1129,3.0613,0.027340,1.008780,-0.099600,-0.102359,-1.007359,-0.055269,-0.000716,0.005837,0.019508,0.046264,0.992553,-0.112686,-0.004846,0.019764,-0.001024,0.1220,-0.1220,0.0000,-0.041366,0.055439,-0.025495,-0.997279
152656.320000,-0.990585,-0.083949,-0.108136,0.079315,-0.995766,0.046477,-0.111580,0.037463,0.993049,0.0377,0.1118,3.0617,0.027830,1.008780,-0.099600,-0.101484,-1.006930,-0.064221,-0.000346,-0.003703,0.019528,0.037463,0.993049,-0.111580,0.004448,0.019257,-0.002130,0.1220,-0.1220,0.0000,-0.040921,0.055071,-0.021039,-0.997422
152656.395000,-0.990557,-0.084382,-0.108056,0.079030,-0.995468,0.052897,-0.112030,0.043858,0.992737,0.0442,0.1123,3.0620,0.028800,1.008300,-0.099600,-0.102848,-1.006723,-0.057881,-0.000316,0.001853,0.019079,0.043858,0.992737,-0.112030,-0.000981,0.019072,-0.001678,0.0610,-0.1220,0.0000,-0.040962,0.055168,-0.024253,-0.997342
152656.471000,-0.990671,-0.083172,-0.107948,0.078344,-0.995759,0.048236,-0.111502,0.039329,0.992986,0.0396,0.1117,3.0627,0.028800,1.005850,-0.099120,-0.101490,-1.004109,-0.062077,-0.000364,-0.002817,0.016604,0.039329,0.992986,-0.111502,0.003488,0.016391,-0.001712,0.1220,-0.1220,0.0000,-0.040483,0.055004,-0.021948,-0.997424
152656.546000,-0.990527,-0.082167,-0.110020,0.077040,-0.995770,0.050072,-0.113669,0.041122,0.992667,0.0414,0.1139,3.0640,0.029290,1.008780,-0.101070,-0.100781,-1.007317,-0.062176,-0.000857,-0.001422,0.019739,0.041122,0.992667,-0.113669,0.002298,0.019617,-0.001504,0.2440,-0.1220,0.0610,-0.039907,0.056070,-0.022859,-0.997367
152656.621000,-0.990411,-0.083416,-0.110127,0.077802,-0.995487,0.054331,-0.114162,0.045241,0.992432,0.0456,0.1144,3.0632,0.029290,1.008300,-0.101560,-0.101933,-1.006989,-0.058518,-0.000501,0.002746,0.019323,0.045241,0.992432,-0.114162,-0.001818,0.019381,-0.001496,0.1830,-0.1220,0.0000,-0.040414,0.056225,-0.024961,-0.997288
152656.696000,-0.990417,-0.082901,-0.110464,0.077764,-0.995716,0.050031,-0.114139,0.040962,0.992620,0.0412,0.1144,3.0632,0.029290,1.008780,-0.102050,-0.101365,-1.007286,-0.063319,-0.000388,-0.001646,0.019858,0.040962,0.992620,-0.114139,0.002485,0.019672,-0.002010,0.0610,-0.1220,-0.0610,-0.040273,0.056300,-0.022809,-0.997341
152656.771000,-0.990364,-0.083548,-0.110445,0.077996,-0.995508,0.053676,-0.114433,0.044545,0.992432,0.0449,0.1147,3.0630,0.029780,1.007810,-0.102050,-0.102423,-1.006437,-0.059793,-0.000341,0.001501,0.018913,0.044545,0.992432,-0.114433,-0.000624,0.018888,-0.001709,0.0610,-0.1830,-0.0610,-0.040496,0.056373,-0.024622,-0.997284
152656.846000,-0.990468,-0.082284,-0.110468,0.077186,-0.995779,0.049665,-0.114088,0.040665,0.992638,0.0409,0.1143,3.0638,0.030270,1.007810,-0.102050,-0.101635,-1.006288,-0.063770,-0.000336,-0.002964,0.018920,0.040665,0.992638,-0.114088,0.003749,0.018671,-0.002054,0.0610,-0.1830,-0.0610,-0.039973,0.056288,-0.022642,-0.997357
152656.921000,-0.990422,-0.083006,-0.110333,0.077314,-0.995493,0.054915,-0.114394,0.045859,0.992376,0.0462,0.1146,3.0637,0.030760,1.008300,-0.102050,-0.102901,-1.006982,-0.058551,-0.000328,0.001869,0.019416,0.045859,0.992376,-0.114394,-0.000943,0.019407,-0.001752,0.0610,-0.1830,0.0000,-0.040189,0.056335,-0.025262,-0.997283
152656.996000,-0.990251,-0.082610,-0.112155,0.077269,-0.995697,0.051165,-0.115899,0.042000,0.992373,0.0423,0.1162,3.0637,0.030270,1.007810,-0.103510,-0.101621,-1.006430,-0.063900,-0.000648,-0.001604,0.019102,0.042000,0.992373,-0.115899,0.002453,0.018947,-0.001696,0.0610,-0.1830,-0.0610,-0.040079,0.057169,-0.023355,-0.997286
152657.071000,-0.990317,-0.083058,-0.111235,0.077319,-0.995491,0.054954,-0.115297,0.045822,0.992274,0.0461,0.1156,3.0637,0.031250,1.006830,-0.103020,-0.103113,-1.005535,-0.059692,-0.000187,0.001265,0.018098,0.045822,0.992274,-0.115297,-0.000414,0.018049,-0.001804,0.0610,-0.1830,-0.0610,-0.040205,0.056789,-0.025263,-0.997256
152657.146000,-0.990080,-0.084437,-0.112299,0.078658,-0.995387,0.054937,-0.116420,0.045559,0.992155,0.0459,0.1167,3.0623,0.030270,1.008780,-0.104000,-0.103469,-1.007459,-0.060749,-0.000518,0.002043,0.020118,0.045559,0.992155,-0.116420,-0.001073,0.020130,-0.001669,0.0610,-0.1830,-0.0610,-0.040888,0.057341,-0.025194,-0.997199
152657.221000,-0.990175,-0.083454,-0.112198,0.078063,-0.995611,0.051624,-0.116014,0.042358,0.992344,0.0427,0.1163,3.0629,0.031250,1.007810,-0.104000,-0.103380,-1.006316,-0.064140,-0.000337,-0.002264,0.019183,0.042358,0.992344,-0.116014,0.003095,0.018957,-0.002069,0.0610,-0.1830,-0.0610,-0.040490,0.057210,-0.023560,-0.997263
152657.296000,-0.989896,-0.085297,-0.113273,0.079151,-0.995192,0.057697,-0.117650,0.048149,0.991887,0.0485,0.1179,3.0618,0.031250,1.007320,-0.104980,-0.104964,-1.006060,-0.059304,-0.000525,0.003647,0.018819,0.048149,0.991887,-0.117650,-0.002678,0.018936,-0.001405,0.0610,-0.1830,-0.0610,-0.041231,0.057897,-0.026538,-0.997118
152657.371000,-0.989911,-0.085458,-0.113021,0.079728,-0.995337,0.054292,-0.117133,0.044734,0.992108,0.0451,0.1174,3.0612,0.031730,1.007320,-0.104980,-0.105629,-1.005793,-0.062807,-0.000316,-0.000352,0.018836,0.044734,0.992108,-0.117133,0.001220,0.018704,-0.001922,0.0610,-0.1830,-0.0610,-0.041414,0.057702,-0.024827,-0.997165
152657.446000,-0.989971,-0.084724,-0.113048,0.079074,-0.995428,0.053569,-0.117070,0.044093,0.992144,0.0444,0.1173,3.0619,0.032220,1.006830,-0.104980,-0.105331,-1.005303,-0.063533,-0.000290,-0.001516,0.018364,0.044093,0.992144,-0.117070,0.002344,0.018171,-0.001983,0.0000,-0.1830,-0.0610,-0.041065,0.057691,-0.024484,-0.997189
152657.522000,-0.989903,-0.085890,-0.112764,0.079669,-0.995099,0.058575,-0.117242,0.048999,0.991894,0.0494,0.1175,3.0613,0.033200,1.007810,-0.104980,-0.107588,-1.006375,-0.058639,-0.000252,0.002540,0.019351,0.048999,0.991894,-0.117242,-0.001558,0.019371,-0.001816,0.0000,-0.1830,-0.0610,-0.041510,0.057668,-0.026971,-0.997108
152657.597000,-0.989958,-0.085123,-0.112855,0.079654,-0.995459,0.052127,-0.116780,0.042614,0.992243,0.0429,0.1170,3.0613,0.031730,1.004880,-0.104490,-0.105158,-1.003236,-0.064563,-0.000348,-0.002563,0.016368,0.042614,0.992243,-0.116780,0.003279,0.016147,-0.001772,0.0610,-0.1830,-0.0610,-0.041310,0.057570,-0.023752,-0.997204
152657.672000,-0.989570,-0.086076,-0.115507,0.079669,-0.995075,0.058985,-0.120015,0.049167,0.991554,0.0495,0.1203,3.0613,0.033200,1.007810,-0.106930,-0.107250,-1.006508,-0.060460,-0.001161,0.002749,0.019595,0.049167,0.991554,-0.120015,-0.001672,0.019726,-0.000984,0.4270,-0.1220,0.1830,-0.041560,0.059057,-0.027119,-0.997020
152657.747000,-0.989596,-0.084445,-0.116487,0.078448,-0.995392,0.055151,-0.120608,0.045439,0.991660,0.0458,0.1209,3.0625,0.035150,1.007810,-0.108390,-0.107263,-1.006386,-0.065931,-0.000799,-0.003103,0.019831,0.045439,0.991660,-0.120608,0.004057,0.019587,-0.001845,0.3660,-0.1220,0.1830,-0.040843,0.059448,-0.025221,-0.997077
152657.822000,-0.989367,-0.088317,-0.115556,0.081126,-0.994548,0.065522,-0.120713,0.055451,0.991138,0.0559,0.1210,3.0598,0.034170,1.006830,-0.107910,-0.110257,-1.005639,-0.055249,-0.000356,0.008087,0.018752,0.055451,0.991138,-0.120713,-0.006972,0.019156,-0.001255,0.1220,-0.1830,0.0000,-0.042493,0.059252,-0.030338,-0.996877
152657.897000,-0.989467,-0.087237,-0.115520,0.081330,-0.995174,0.054904,-0.119752,0.044931,0.991787,0.0453,0.1200,3.0596,0.035150,1.007320,-0.107910,-0.110190,-1.005524,-0.065973,-0.000391,-0.003660,0.019285,0.044931,0.991787,-0.119752,0.004543,0.018971,-0.002220,0.1220,-0.1830,0.0000,-0.042267,0.058992,-0.025033,-0.997049
152657.972000,-0.989199,-0.088919,-0.116524,0.082124,-0.994699,0.061882,-0.121409,0.051644,0.991258,0.0521,0.1217,3.0588,0.034660,1.007320,-0.108880,-0.111169,-1.005872,-0.060114,-0.000528,0.003705,0.019397,0.051644,0.991258,-0.121409,-0.002637,0.019518,-0.001528,0.0610,-0.1830,0.0000,-0.042894,0.059669,-0.028470,-0.996890
152658.047000,-0.989401,-0.086693,-0.116491,0.080911,-0.995285,0.053482,-0.120579,0.043490,0.991751,0.0438,0.1209,3.0600,0.035150,1.006830,-0.108880,-0.109379,-1.005062,-0.068433,-0.000348,-0.005173,0.018921,0.043490,0.991751,-0.120579,0.006001,0.018529,-0.002355,0.0610,-0.1830,-0.0610,-0.042025,0.059443,-0.024315,-0.997050
152658.122000,-0.989074,-0.088985,-0.117536,0.081804,-0.994554,0.064576,-0.122643,0.054255,0.990967,0.0547,0.1230,3.0591,0.035150,1.006830,-0.109860,-0.111446,-1.005566,-0.058553,-0.000597,0.005856,0.019044,0.054255,0.990967,-0.122643,-0.004737,0.019320,-0.001266,0.0610,-0.1830,0.0000,-0.042834,0.060236,-0.029803,-0.996819
152658.197000,-0.989103,-0.089321,-0.117031,0.082754,-0.994773,0.059827,-0.121763,0.049490,0.991325,0.0499,0.1221,3.0581,0.036620,1.006830,-0.109860,-0.113295,-1.005109,-0.063538,-0.000227,-0.000544,0.019101,0.049490,0.991325,-0.121763,0.001507,0.018929,-0.002146,0.0610,-0.1830,-0.0610,-0.043153,0.059885,-0.027414,-0.996895
152658.272000,-0.988945,-0.090861,-0.117181,0.083911,-0.994483,0.062954,-0.122255,0.052425,0.991113,0.0528,0.1226,3.0569,0.036130,1.006340,-0.109860,-0.114295,-1.004672,-0.060543,-0.000379,0.002957,0.018601,0.052425,0.991113,-0.122255,-0.001931,0.018666,-0.001651,0.0610,-0.1830,0.0000,-0.043833,0.060050,-0.028937,-0.996813
152658.347000,-0.989167,-0.087443,-0.117911,0.081805,-0.995299,0.051847,-0.121890,0.041639,0.991670,0.0420,0.1222,3.0591,0.035640,1.007320,-0.110350,-0.110326,-1.005390,-0.071831,-0.000503,-0.007570,0.019592,0.041639,0.991670,-0.121890,0.008395,0.019095,-0.002510,0.0610,-0.1830,-0.0610,-0.042439,0.060130,-0.023441,-0.997012
152658.422000,-0.989024,-0.089317,-0.117705,0.082073,-0.994503,0.065029,-0.122866,0.054655,0.990917,0.0551,0.1232,3.0588,0.036130,1.006340,-0.110350,-0.112628,-1.005018,-0.058785,-0.000340,0.005226,0.018655,0.054655,0.990917,-0.122866,-0.004147,0.018866,-0.001527,0.0610,-0.1830,-0.0610,-0.042985,0.060336,-0.030017,-0.996800
152658.498000,-0.989204,-0.086558,-0.118248,0.080607,-0.995270,0.054226,-0.122383,0.044109,0.991502,0.0445,0.1227,3.0603,0.037100,1.006830,-0.110830,-0.110743,-1.005087,-0.070018,-0.000392,-0.006546,0.019220,0.044109,0.991502,-0.122383,0.007397,0.018748,-0.002492,0.0000,-0.1830,-0.0610,-0.041917,0.060339,-0.024658,-0.996993
152658.573000,-0.989137,-0.086742,-0.118673,0.079746,-0.994855,0.062491,-0.123483,0.052348,0.990965,0.0528,0.1238,3.0611,0.037590,1.006340,-0.111320,-0.111263,-1.005121,-0.062276,-0.000345,0.001368,0.018836,0.052348,0.990965,-0.123483,-0.000345,0.018792,-0.001876,0.0000,-0.1830,-0.0610,-0.041753,0.060730,-0.028800,-0.996865
152658.648000,-0.989148,-0.086756,-0.118571,0.080060,-0.994975,0.060125,-0.123192,0.049980,0.991124,0.0504,0.1235,3.0608,0.037100,1.006830,-0.111320,-0.110847,-1.005494,-0.064581,-0.000255,-0.000556,0.019305,0.049980,0.991124,-0.123192,0.001540,0.019130,-0.002171,0.0000,-0.1830,-0.0610,-0.041834,0.060629,-0.027612,-0.996901
152658.723000,-0.989084,-0.087397,-0.118636,0.080409,-0.994802,0.062473,-0.123479,0.052252,0.990971,0.0527,0.1238,3.0605,0.037590,1.005850,-0.111320,-0.111881,-1.004554,-0.062399,-0.000292,0.001250,0.018354,0.052252,0.990971,-0.123479,-0.000258,0.018301,-0.001877,0.0000,-0.1830,-0.0610,-0.042084,0.060720,-0.028772,-0.996852
152658.798000,-0.989018,-0.087494,-0.119116,0.080693,-0.994884,0.060778,-0.123824,0.050498,0.991018,0.0509,0.1241,3.0602,0.037590,1.006340,-0.111810,-0.111908,-1.004954,-0.064642,-0.000365,-0.000534,0.018901,0.050498,0.991018,-0.123824,0.001518,0.018742,-0.002023,0.0000,-0.2440,-0.0610,-0.042179,0.060926,-0.027907,-0.996860
152658.873000,-0.988924,-0.087937,-0.119565,0.080867,-0.994747,0.062760,-0.124456,0.052396,0.990841,0.0528,0.1248,3.0600,0.038080,1.005850,-0.112300,-0.112683,-1.004535,-0.063308,-0.000359,0.000889,0.018498,0.052396,0.990841,-0.124456,0.000117,0.018427,-0.001875,0.0000,-0.1830,-0.0610,-0.042336,0.061200,-0.028881,-0.996809
152658.948000,-0.988910,-0.087237,-0.120194,0.080544,-0.994975,0.059474,-0.124779,0.049134,0.990967,0.0495,0.1251,3.0603,0.037590,1.005370,-0.112790,-0.111322,-1.003999,-0.067064,-0.000382,-0.001979,0.018075,0.049134,0.990967,-0.124779,0.002891,0.017840,-0.002037,0.0000,-0.1830,-0.0610,-0.042078,0.061437,-0.027238,-0.996852
152659.023000,-0.988913,-0.087702,-0.119832,0.080508,-0.994722,0.063616,-0.124779,0.053263,0.990754,0.0537,0.1251,3.0604,0.038570,1.006830,-0.112790,-0.112927,-1.005586,-0.062933,-0.000290,0.001298,0.019541,0.053263,0.990754,-0.124779,-0.000225,0.019478,-0.002047,0.0610,-0.1830,0.0000,-0.042188,0.061349,-0.029314,-0.996793
152659.098000,-0.988796,-0.087314,-0.121070,0.080363,-0.994887,0.061167,-0.125792,0.050752,0.990758,0.0512,0.1261,3.0605,0.038570,1.005850,-0.113760,-0.112190,-1.004566,-0.066512,-0.000472,-0.001311,0.018706,0.050752,0.990758,-0.125792,0.002294,0.018510,-0.001992,0.0000,-0.1830,-0.0610,-0.042054,0.061914,-0.028070,-0.996800
152659.173000,-0.988891,-0.087455,-0.120193,0.080279,-0.994760,0.063312,-0.125100,0.052960,0.990730,0.0534,0.1254,3.0606,0.039060,1.006830,-0.113280,-0.113063,-1.005590,-0.063794,-0.000205,0.000475,0.019622,0.052960,0.990730,-0.125100,0.000585,0.019495,-0.002213,0.0610,-0.1830,-0.0610,-0.042068,0.061520,-0.029162,-0.996792
152659.248000,-0.988695,-0.088792,-0.120823,0.081336,-0.994545,0.065310,-0.125963,0.054745,0.990523,0.0552,0.1263,3.0595,0.039060,1.006340,-0.113760,-0.114229,-1.005103,-0.062510,-0.000412,0.002296,0.019202,0.054745,0.990523,-0.125963,-0.001196,0.019219,-0.001825,0.0000,-0.1830,-0.0610,-0.042672,0.061900,-0.030113,-0.996715
152659.323000,-0.988704,-0.088042,-0.121294,0.081042,-0.994812,0.061485,-0.126078,0.050960,0.990711,0.0514,0.1264,3.0598,0.039550,1.005850,-0.114250,-0.113802,-1.004451,-0.066917,-0.000351,-0.002107,0.018801,0.050960,0.990711,-0.126078,0.003085,0.018539,-0.002194,0.0000,-0.1830,-0.0610,-0.042408,0.062043,-0.028202,-0.996773
152659.398000,-0.988747,-0.088487,-0.120620,0.081127,-0.994606,0.064631,-0.125688,0.054118,0.990593,0.0546,0.1260,3.0597,0.039550,1.005850,-0.113760,-0.114388,-1.004568,-0.063226,-0.000170,0.001121,0.018737,0.054118,0.990593,-0.125688,-0.000086,0.018653,-0.002096,0.0000,-0.1830,-0.0610,-0.042542,0.061778,-0.029784,-0.996738
152659.473000,-0.988616,-0.088212,-0.121888,0.081048,-0.994746,0.062538,-0.126764,0.051947,0.990572,0.0524,0.1271,3.0598,0.039550,1.006340,-0.114740,-0.113885,-1.005023,-0.066395,-0.000548,-0.001073,0.019350,0.051947,0.990572,-0.126764,0.002121,0.019167,-0.001998,0.0610,-0.1830,-0.0610,-0.042453,0.062367,-0.028715,-0.996736
152659.549000,-0.988784,-0.086482,-0.121768,0.079622,-0.995010,0.060121,-0.126359,0.049751,0.990736,0.0502,0.1267,3.0612,0.039550,1.005850,-0.114740,-0.112122,-1.004580,-0.068632,-0.000254,-0.003364,0.018863,0.049751,0.990736,-0.126359,0.004308,0.018517,-0.002400,0.0000,-0.1830,-0.0610,-0.041659,0.062230,-0.027556,-0.996811
152659.624000,-0.988806,-0.086461,-0.121606,0.078959,-0.994742,0.065221,-0.126606,0.054889,0.990433,0.0554,0.1269,3.0619,0.041010,1.006340,-0.114740,-0.113607,-1.005294,-0.063597,-0.000266,0.000442,0.019397,0.054889,0.990433,-0.126606,0.000648,0.019273,-0.002158,0.0000,-0.1830,-0.0610,-0.041490,0.062256,-0.030126,-0.996742
152659.699000,-0.988661,-0.086434,-0.122797,0.078964,-0.994791,0.064464,-0.127729,0.054037,0.990336,0.0545,0.1281,3.0619,0.041010,1.005850,-0.115720,-0.113275,-1.004832,-0.065487,-0.000467,-0.000451,0.019048,0.054037,0.990336,-0.127729,0.001518,0.018892,-0.002006,0.0000,-0.1830,-0.0610,-0.041486,0.062838,-0.029723,-0.996718
152659.774000,-0.988603,-0.086558,-0.123170,0.079065,-0.994782,0.064478,-0.128109,0.054005,0.990289,0.0545,0.1285,3.0618,0.040520,1.005850,-0.116210,-0.112809,-1.004891,-0.065951,-0.000337,-0.000009,0.019099,0.054005,0.990289,-0.128109,0.001070,0.018954,-0.002114,0.0000,-0.1830,-0.0610,-0.041543,0.063027,-0.029719,-0.996704
152659.849000,-0.988778,-0.085380,-0.122594,0.078169,-0.994980,0.062484,-0.127313,0.052200,0.990488,0.0527,0.1277,3.0627,0.041010,1.005850,-0.115720,-0.112243,-1.004826,-0.067335,-0.000189,-0.002356,0.019045,0.052200,0.990488,-0.127313,0.003355,0.018740,-0.002422,0.0000,-0.1830,-0.0610,-0.041020,0.062679,-0.028764,-0.996776
152659.924000,-0.988655,-0.086018,-0.123136,0.078307,-0.994732,0.066155,-0.128178,0.055762,0.990182,0.0563,0.1285,3.0626,0.041010,1.006340,-0.116210,-0.112798,-1.005515,-0.064210,-0.000365,0.001316,0.019596,0.055762,0.990182,-0.128178,-0.000185,0.019535,-0.002048,0.0000,-0.1830,-0.0610,-0.041217,0.063037,-0.030581,-0.996691
152659.999000,-0.988676,-0.085749,-0.123158,0.078270,-0.994854,0.064337,-0.128041,0.053969,0.990299,0.0544,0.1284,3.0626,0.041500,1.005370,-0.116210,-0.112927,-1.004425,-0.066138,-0.000296,-0.001056,0.018658,0.053969,0.990299,-0.128041,0.002083,0.018445,-0.002179,0.0000,-0.2440,-0.1220,-0.041140,0.063006,-0.029674,-0.996723
152660.074000,-0.988673,-0.084937,-0.123740,0.077524,-0.994963,0.063546,-0.128514,0.053233,0.990278,0.0537,0.1289,3.0633,0.041500,1.005370,-0.116690,-0.111984,-1.004504,-0.067370,-0.000367,-0.001813,0.018722,0.053233,0.990278,-0.128514,0.002832,0.018471,-0.002183,0.0000,-0.2440,-0.0610,-0.040748,0.063270,-0.029290,-0.996734
152660.149000,-0.988765,-0.084088,-0.123585,0.076585,-0.994990,0.064268,-0.128370,0.054081,0.990251,0.0546,0.1287,3.0643,0.041990,1.005850,-0.116690,-0.111677,-1.005094,-0.066545,-0.000248,-0.001433,0.019211,0.054081,0.990251,-0.128370,0.002486,0.018963,-0.002330,0.0000,-0.1830,-0.0610,-0.040299,0.063195,-0.029684,-0.996745
152660.224000,-0.988654,-0.084467,-0.124216,0.076640,-0.994839,0.066499,-0.129192,0.056224,0.990024,0.0567,0.1296,3.0642,0.041990,1.005370,-0.117180,-0.111878,-1.004755,-0.064910,-0.000383,0.000747,0.018807,0.056224,0.990024,-0.129192,0.000347,0.018717,-0.001994,0.0000,-0.1830,-0.0610,-0.040411,0.063563,-0.030783,-0.996684
152660.299000,-0.988616,-0.084246,-0.124662,0.076596,-0.994945,0.064943,-0.129503,0.054655,0.990072,0.0551,0.1299,3.0643,0.041990,1.004880,-0.117670,-0.111500,-1.004226,-0.067017,-0.000287,-0.000895,0.018393,0.054655,0.990072,-0.129503,0.001920,0.018188,-0.002166,-0.0610,-0.1830,-0.1220,-0.040344,0.063752,-0.029999,-0.996699
152660.374000,-0.988777,-0.083298,-0.124021,0.075677,-0.995015,0.064950,-0.128812,0.054836,0.990152,0.0553,0.1292,3.0652,0.042960,1.005850,-0.117180,-0.111731,-1.005195,-0.066403,-0.000239,-0.001650,0.019311,0.054836,0.990152,-0.128812,0.002720,0.019044,-0.002376,0.0610,-0.1830,-0.0610,-0.039874,0.063415,-0.030044,-0.996738
152660.449000,-0.988713,-0.083058,-0.124688,0.075248,-0.994971,0.066102,-0.129551,0.055974,0.989992,0.0565,0.1299,3.0656,0.042960,1.005370,-0.117670,-0.111307,-1.004860,-0.065783,-0.000370,-0.000500,0.018908,0.055974,0.989992,-0.129551,0.001586,0.018732,-0.002122,0.0000,-0.1830,-0.0610,-0.039707,0.063770,-0.030620,-0.996704
152660.525000,-0.988485,-0.084303,-0.125657,0.076054,-0.994709,0.069065,-0.130814,0.058713,0.989667,0.0593,0.1312,3.0648,0.042960,1.005370,-0.118650,-0.112312,-1.004978,-0.064015,-0.000488,0.002297,0.019041,0.058713,0.989667,-0.130814,-0.001126,0.019064,-0.001834,0.0000,-0.1830,-0.0610,-0.040226,0.064336,-0.032053,-0.996602
152660.600000,-0.988506,-0.084592,-0.125300,0.076677,-0.994822,0.066705,-0.130293,0.056330,0.989874,0.0568,0.1307,3.0642,0.042960,1.005850,-0.118650,-0.112686,-1.005262,-0.066386,-0.000199,-0.000151,0.019515,0.056330,0.989874,-0.130293,0.001266,0.019332,-0.002358,0.0000,-0.1830,-0.0610,-0.040453,0.064113,-0.030862,-0.996645
152660.675000,-0.988361,-0.085459,-0.125851,0.077211,-0.994623,0.069024,-0.131073,0.058504,0.989645,0.0590,0.1315,3.0636,0.043450,1.005850,-0.119140,-0.113909,-1.005310,-0.064755,-0.000385,0.001589,0.019599,0.058504,0.989645,-0.131073,-0.000401,0.019554,-0.002066,0.0000,-0.1830,-0.0610,-0.040807,0.064452,-0.031992,-0.996573
152660.750000,-0.988476,-0.084036,-0.125907,0.076419,-0.995009,0.064160,-0.130670,0.053799,0.989965,0.0543,0.1310,3.0644,0.043450,1.005370,-0.119140,-0.112436,-1.004676,-0.069534,-0.000286,-0.003258,0.019123,0.053799,0.989965,-0.130670,0.004295,0.018758,-0.002465,0.0000,-0.1830,-0.0610,-0.040248,0.064358,-0.029588,-0.996676
152660.825000,-0.988700,-0.081311,-0.125939,0.073865,-0.995294,0.062713,-0.130446,0.052702,0.990054,0.0532,0.1308,3.0670,0.043940,1.006340,-0.119140,-0.110265,-1.005831,-0.070650,-0.000285,-0.004844,0.020088,0.052702,0.990054,-0.130446,0.005903,0.019620,-0.002697,0.0000,-0.1830,-0.1220,-0.038920,0.064305,-0.028948,-0.996751
152660.900000,-0.988832,-0.079241,-0.126226,0.071591,-0.995376,0.064034,-0.130717,0.054283,0.989933,0.0548,0.1311,3.0693,0.043940,1.005370,-0.119140,-0.108077,-1.005205,-0.069110,-0.000319,-0.003255,0.019141,0.054283,0.989933,-0.130717,0.004304,0.018780,-0.002420,0.0000,-0.1830,-0.0610,-0.037830,0.064444,-0.029675,-0.996762
152660.975000,-0.988508,-0.081748,-0.127161,0.072845,-0.994656,0.073160,-0.132462,0.063056,0.989180,0.0637,0.1329,3.0680,0.044430,1.004880,-0.120110,-0.110793,-1.005061,-0.061332,-0.000481,0.005212,0.018804,0.063056,0.989180,-0.132462,-0.003959,0.019043,-0.001636,0.0000,-0.1830,-0.0610,-0.038783,0.065131,-0.034172,-0.996537
152661.050000,-0.988929,-0.077143,-0.126760,0.070355,-0.995881,0.057191,-0.130650,0.047640,0.990283,0.0481,0.1310,3.0706,0.043940,1.005370,-0.119620,-0.105848,-1.004979,-0.076303,-0.000251,-0.010069,0.019163,0.047640,0.990283,-0.130650,0.010960,0.018433,-0.002963,-0.0610,-0.1830,-0.1220,-0.036990,0.064554,-0.026290,-0.996882
152661.125000,-0.988630,-0.080404,-0.127067,0.071077,-0.994548,0.076309,-0.132510,0.066410,0.988954,0.0671,0.1329,3.0698,0.045410,1.005370,-0.120110,-0.110467,-1.005826,-0.058034,-0.000426,0.007677,0.019306,0.066410,0.988954,-0.132510,-0.006319,0.019732,-0.001592,0.0000,-0.1830,-0.0610,-0.038003,0.065122,-0.035805,-0.996510
152661.200000,-0.988683,-0.078765,-0.127681,0.071179,-0.995476,0.062929,-0.132060,0.053129,0.989817,0.0536,0.1324,3.0697,0.044430,1.005370,-0.120600,-0.107717,-1.005249,-0.071825,-0.000384,-0.004955,0.019355,0.053129,0.989817,-0.132060,0.005991,0.018895,-0.002529,0.0000,-0.1830,-0.1220,-0.037609,0.065148,-0.029109,-0.996742
152661.275000,-0.988773,-0.078805,-0.126959,0.070546,-0.995168,0.068295,-0.131727,0.058572,0.989554,0.0591,0.1321,3.0704,0.044430,1.005370,-0.120110,-0.107911,-1.005580,-0.065822,-0.000126,0.000609,0.019299,0.058572,0.989554,-0.131727,0.000534,0.019155,-0.002374,-0.0610,-0.1830,-0.1220,-0.037462,0.064887,-0.031822,-0.996681
152661.350000,-0.988572,-0.079558,-0.128044,0.071011,-0.995017,0.069992,-0.132975,0.060100,0.989296,0.0607,0.1334,3.0699,0.045410,1.005850,-0.121090,-0.109410,-1.006088,-0.065381,-0.000466,0.001214,0.019943,0.060100,0.989296,-0.132975,0.000028,0.019874,-0.002105,0.0000,-0.1830,-0.0610,-0.037770,0.065477,-0.032634,-0.996605
152661.425000,-0.988746,-0.078438,-0.127394,0.070518,-0.995355,0.065540,-0.131943,0.055819,0.989684,0.0563,0.1323,3.0704,0.044920,1.005370,-0.120600,-0.107910,-1.005437,-0.069164,-0.000104,-0.002716,0.019382,0.055819,0.989684,-0.131943,0.003793,0.019017,-0.002646,-0.0610,-0.1830,-0.1220,-0.037362,0.065048,-0.030440,-0.996718
152661.500000,-0.988638,-0.078609,-0.128121,0.070067,-0.995092,0.069878,-0.132985,0.060107,0.989294,0.0607,0.1334,3.0708,0.045890,1.004390,-0.121090,-0.108809,-1.004706,-0.065525,-0.000335,0.000668,0.018527,0.060107,0.989294,-0.132985,0.000476,0.018418,-0.002086,-0.0610,-0.1830,-0.1220,-0.037295,0.065498,-0.032606,-0.996622
152661.576000,-0.988685,-0.077178,-0.128628,0.069194,-0.995455,0.065433,-0.133094,0.055792,0.989532,0.0563,0.1335,3.0717,0.045410,1.004880,-0.121580,-0.106812,-1.005126,-0.070287,-0.000298,-0.003259,0.019055,0.055792,0.989532,-0.133094,0.004330,0.018680,-0.002467,-0.0610,-0.1830,-0.1220,-0.036714,0.065647,-0.030406,-0.996704
152661.651000,-0.988570,-0.078932,-0.128446,0.070052,-0.994923,0.072250,-0.133497,0.062427,0.989081,0.0630,0.1339,3.0708,0.045410,1.004880,-0.121580,-0.108592,-1.005382,-0.063583,-0.000235,0.003530,0.019054,0.062427,0.989081,-0.133497,-0.002304,0.019131,-0.002064,-0.0610,-0.1830,-0.1220,-0.037374,0.065711,-0.033785,-0.996566
152661.726000,-0.988736,-0.076431,-0.128680,0.068683,-0.995608,0.063614,-0.132977,0.054059,0.989644,0.0546,0.1334,3.0722,0.045890,1.004390,-0.121580,-0.106494,-1.004561,-0.072126,-0.000273,-0.005536,0.018581,0.054059,0.989644,-0.132977,0.006537,0.018072,-0.002581,-0.0610,-0.1830,-0.1220,-0.036397,0.065628,-0.029514,-0.996743
152661.801000,-0.988684,-0.076283,-0.129172,0.067752,-0.995299,0.069205,-0.133844,0.059670,0.989204,0.0602,0.1342,3.0732,0.045890,1.004390,-0.122070,-0.106220,-1.005007,-0.066962,-0.000286,0.000197,0.018666,0.059670,0.989204,-0.133844,0.000939,0.018515,-0.002202,-0.0610,-0.1830,-0.1220,-0.036130,0.065976,-0.032327,-0.996643
152661.876000,-0.988737,-0.075714,-0.129099,0.067319,-0.995398,0.068204,-0.133669,0.058745,0.989283,0.0593,0.1341,3.0736,0.046380,1.004390,-0.122070,-0.106145,-1.004971,-0.067959,-0.000207,-0.001250,0.018684,0.058745,0.989283,-0.133669,0.002358,0.018425,-0.002377,-0.0610,-0.1830,-0.0610,-0.035878,0.065912,-0.031843,-0.996672
152661.951000,-0.988826,-0.074417,-0.129170,0.066122,-0.995535,0.067364,-0.133606,0.058071,0.989332,0.0586,0.1340,3.0748,0.046870,1.004880,-0.122070,-0.105358,-1.005517,-0.068676,-0.000282,-0.002410,0.019182,0.058071,0.989332,-0.133606,0.003534,0.018851,-0.002443,0.0000,-0.1830,-0.0610,-0.035251,0.065911,-0.031462,-0.996706
152662.026000,-0.988728,-0.074758,-0.129725,0.066070,-0.995354,0.070033,-0.134358,0.060672,0.989074,0.0613,0.1348,3.0749,0.046380,1.004880,-0.122550,-0.105082,-1.005730,-0.066474,-0.000370,0.000745,0.019234,0.060672,0.989074,-0.134358,0.000453,0.019124,-0.002169,0.0000,-0.1830,-0.0610,-0.035326,0.066243,-0.032786,-0.996639
152662.101000,-0.988783,-0.074358,-0.129536,0.065862,-0.995462,0.068687,-0.134056,0.059385,0.989193,0.0600,0.1345,3.0751,0.046870,1.004880,-0.122550,-0.105191,-1.005650,-0.067834,-0.000183,-0.001081,0.019252,0.059385,0.989193,-0.134056,0.002233,0.018994,-0.002471,-0.0610,-0.1830,-0.1220,-0.035172,0.066118,-0.032125,-0.996674
152662.176000,-0.988705,-0.075302,-0.129581,0.066428,-0.995227,0.071493,-0.134346,0.062078,0.988988,0.0627,0.1348,3.0745,0.046870,1.004390,-0.122550,-0.106093,-1.005244,-0.065147,-0.000237,0.001661,0.018770,0.062078,0.988988,-0.134346,-0.000470,0.018713,-0.002177,-0.0610,-0.2440,-0.0610,-0.035553,0.066206,-0.033506,-0.996609
152662.251000,-0.988664,-0.073717,-0.130805,0.065498,-0.995663,0.066069,-0.135108,0.056752,0.989204,0.0573,0.1355,3.0754,0.046870,1.004390,-0.123530,-0.104221,-1.005126,-0.071528,-0.000417,-0.003796,0.018904,0.056752,0.989204,-0.135108,0.004883,0.018504,-0.002391,-0.0610,-0.1830,-0.1220,-0.034919,0.066699,-0.030807,-0.996686
152662.326000,-0.988524,-0.076259,-0.130405,0.066756,-0.994889,0.075762,-0.135516,0.066188,0.988562,0.0669,0.1359,3.0742,0.047360,1.004390,-0.123530,-0.107301,-1.005454,-0.062057,-0.000225,0.005356,0.018917,0.066188,0.988562,-0.135516,-0.004059,0.019135,-0.001983,-0.0610,-0.1830,-0.1220,-0.035880,0.066714,-0.035613,-0.996491
152662.401000,-0.988601,-0.076250,-0.129823,0.067758,-0.995339,0.068625,-0.134450,0.059046,0.989160,0.0596,0.1349,3.0732,0.046870,1.004880,-0.123040,-0.106985,-1.005464,-0.068674,-0.000133,-0.001441,0.019322,0.059046,0.989160,-0.134450,0.002585,0.019031,-0.002564,-0.0610,-0.2440,-0.1220,-0.036124,0.066291,-0.032026,-0.996632
152662.476000,-0.989374,-0.072856,-0.125823,0.066194,-0.996215,0.056342,-0.129452,0.047414,0.990451,0.0478,0.1298,3.0748,0.040520,0.986320,-0.116690,-0.097266,-0.986479,-0.074056,0.000648,-0.007378,-0.000068,0.047414,0.990451,-0.129452,0.007300,-0.000564,-0.001121,-0.3660,-0.1220,-0.5490,-0.034867,0.064011,-0.026017,-0.997001
152662.552000,-0.984973,-0.077384,-0.154403,0.063053,-0.993416,0.095652,-0.160788,0.084479,0.983367,0.0857,0.1615,3.0777,0.062980,1.007320,-0.147940,-0.117142,-1.010867,-0.070508,-0.002714,0.008399,0.026284,0.084479,0.983367,-0.160788,-0.005913,0.027069,-0.001023,2.1970,0.5490,1.7080,-0.035278,0.079177,-0.045250,-0.995208
152662.627000,-0.989161,-0.071581,-0.128209,0.068074,-0.997182,0.031533,-0.130104,0.022464,0.991246,0.0227,0.1305,3.0729,0.000480,0.926260,-0.097650,-0.054258,-0.926696,-0.076050,-0.010274,0.009063,-0.062286,0.022464,0.991246,-0.130104,-0.009701,-0.060138,0.018883,5.0650,1.4640,3.9060,-0.035012,0.064760,-0.013537,-0.997195
152662.702000,-0.984365,-0.080380,-0.156732,0.061230,-0.990466,0.123398,-0.165156,0.111872,0.979902,0.1137,0.1659,3.0795,0.115720,1.062500,-0.159660,-0.174290,-1.064987,-0.056700,-0.006324,-0.011075,0.086244,0.111872,0.979902,-0.165156,0.021126,0.084135,-0.008697,10.5590,0.8540,7.9950,-0.035605,0.080931,-0.059153,-0.994326
152662.777000,-0.983157,-0.069861,-0.168885,0.057760,-0.995469,0.075539,-0.173397,0.064512,0.982737,0.0656,0.1743,3.0829,0.065910,0.966790,-0.149900,-0.107025,-0.969925,-0.096371,-0.008753,-0.016579,-0.012977,0.064512,0.982737,-0.173397,0.016278,-0.012527,0.009898,6.2250,0.2440,4.2720,-0.032061,0.085987,-0.035183,-0.995159
152662.852000,-0.978337,-0.075211,-0.192871,0.051108,-0.990581,0.127036,-0.200609,0.114426,0.972966,0.1171,0.2020,3.0894,0.092280,1.054190,-0.193350,-0.132276,-1.064106,-0.086008,-0.009252,0.014482,0.082214,0.114426,0.972966,-0.200609,-0.004242,0.083615,-0.006702,6.9580,0.7320,5.0650,-0.031812,0.099093,-0.060809,-0.992709
152662.927000,-0.982615,-0.067910,-0.172787,0.051338,-0.993798,0.098638,-0.178414,0.088053,0.980008,0.0896,0.1794,3.0894,0.084960,0.993650,-0.170410,-0.121517,-0.999935,-0.094668,0.001834,-0.011555,0.018378,0.088053,0.980008,-0.178414,0.012977,0.016554,-0.005675,0.3660,-0.3660,0.6100,-0.029976,0.088282,-0.046929,-0.994538
152663.002000,-0.981635,-0.070774,-0.177157,0.051542,-0.992493,0.110907,-0.183676,0.099739,0.977914,0.1016,0.1847,3.0891,0.080560,0.993650,-0.172360,-0.118871,-1.001155,-0.084245,-0.000798,0.005018,0.018472,0.099739,0.977914,-0.183676,-0.003081,0.018762,-0.002351,-0.1830,-0.3660,0.0000,-0.030764,0.090754,-0.052980,-0.993987
152663.077000,-0.982578,-0.067483,-0.173166,0.049338,-0.993031,0.107031,-0.179182,0.096623,0.979060,0.0984,0.1802,3.0914,0.087890,0.995600,-0.169920,-0.124120,-1.002512,-0.085913,0.000505,-0.005473,0.020467,0.096623,0.979060,-0.179182,0.007379,0.019365,-0.004433,-0.1830,-0.4270,0.2440,-0.029372,0.088590,-0.051204,-0.994317
152663.152000,-0.982180,-0.065694,-0.176086,0.047630,-0.993339,0.104923,-0.181806,0.094666,0.978767,0.0964,0.1828,3.0931,0.084470,0.994620,-0.171380,-0.118128,-1.001953,-0.088942,-0.000499,-0.004062,0.019528,0.094666,0.978767,-0.181806,0.005917,0.018775,-0.003254,-0.2440,-0.3050,-0.1830,-0.028494,0.089988,-0.050185,-0.994269
152663.227000,-0.982187,-0.065533,-0.176110,0.046666,-0.992922,0.109217,-0.182021,0.099054,0.978293,0.1009,0.1830,3.0941,0.084960,0.994140,-0.171870,-0.118327,-1.001910,-0.085131,0.000023,-0.000126,0.019200,0.099054,0.978293,-0.182021,0.002026,0.018766,-0.003523,-0.3050,-0.3660,0.0000,-0.028215,0.090059,-0.052374,-0.994158
152663.302000,-0.982449,-0.064117,-0.175167,0.046023,-0.993356,0.105474,-0.180766,0.095561,0.978873,0.0973,0.1818,3.0948,0.084960,0.995110,-0.170890,-0.117338,-1.002613,-0.087543,0.000036,-0.003630,0.019951,0.095561,0.978873,-0.180766,0.005510,0.019140,-0.003809,-0.1830,-0.4270,-0.4880,-0.027692,0.089492,-0.050546,-0.994319
152663.377000,-0.982508,-0.063853,-0.174930,0.044839,-0.992856,0.110573,-0.180741,0.100795,0.978352,0.1027,0.1817,3.0960,0.086910,0.993160,-0.170410,-0.118996,-1.001011,-0.082323,0.000054,-0.000366,0.018122,0.100795,0.978352,-0.180741,0.002187,0.017680,-0.003345,-0.3050,-0.3050,-0.1830,-0.027332,0.089437,-0.053150,-0.994198
152663.452000,-0.982302,-0.063144,-0.176340,0.045481,-0.993696,0.102473,-0.181699,0.092639,0.978981,0.0943,0.1827,3.0953,0.082030,0.995600,-0.171380,-0.113223,-1.003154,-0.090451,-0.000495,-0.003619,0.020297,0.092639,0.978981,-0.181699,0.005508,0.019587,-0.003366,-0.0610,-0.3660,-0.6710,-0.027310,0.090018,-0.049055,-0.994356
152663.528000,-0.982532,-0.064234,-0.174654,0.045177,-0.992796,0.110977,-0.180525,0.101148,0.978356,0.1030,0.1815,3.0956,0.083980,0.994620,-0.170410,-0.116638,-1.002572,-0.081279,0.000225,0.003045,0.019309,0.101148,0.978356,-0.180525,-0.001085,0.019190,-0.003570,-0.2440,-0.1830,-0.1220,-0.027512,0.089313,-0.053341,-0.994194
152663.603000,-0.983539,-0.060682,-0.170204,0.043409,-0.993689,0.103432,-0.175406,0.094341,0.979966,0.0960,0.1763,3.0975,0.086910,0.997550,-0.166500,-0.117673,-1.004703,-0.084299,0.000746,-0.006664,0.021638,0.094341,0.979966,-0.175406,0.008618,0.020389,-0.004818,-0.1830,-0.3050,-0.3050,-0.026163,0.086868,-0.049710,-0.994635
152663.678000,-0.981260,-0.063292,-0.181996,0.043665,-0.992984,0.109895,-0.187674,0.099888,0.977139,0.1019,0.1888,3.0971,0.081540,0.991210,-0.175780,-0.110756,-1.000012,-0.088054,-0.001270,0.003988,0.016837,0.099888,0.977139,-0.187674,-0.002198,0.017122,-0.001740,-0.3660,0.3660,-0.0610,-0.026903,0.092984,-0.052767,-0.993904
152663.753000,-0.982589,-0.060341,-0.175723,0.043264,-0.994102,0.099442,-0.180687,0.090108,0.979404,0.0917,0.1817,3.0976,0.082030,0.995600,-0.171380,-0.110562,-1.003222,-0.092961,0.000449,-0.006275,0.020284,0.090108,0.979404,-0.180687,0.008039,0.019164,-0.004378,0.1220,-0.4880,-0.6710,-0.026045,0.089595,-0.047650,-0.994497
152663.828000,-0.982692,-0.060596,-0.175054,0.041824,-0.993161,0.109002,-0.180462,0.099794,0.978506,0.1016,0.1815,3.0991,0.083980,0.995110,-0.170410,-0.112995,-1.003367,-0.082596,0.000137,0.001700,0.019789,0.099794,0.978506,-0.180462,0.000278,0.019525,-0.003635,-0.3050,-0.1220,-0.0610,-0.025752,0.089391,-0.052499,-0.994279
152663.903000,-0.982956,-0.058658,-0.174232,0.040723,-0.993660,0.104789,-0.179274,0.095907,0.979113,0.0976,0.1802,3.1002,0.084960,0.993650,-0.169430,-0.112277,-1.001645,-0.085824,0.000436,-0.003392,0.018254,0.095907,0.979113,-0.179274,0.005096,0.017441,-0.003840,-0.4880,-0.0610,0.2440,-0.024984,0.088869,-0.050454,-0.994451
152663.978000,-0.982768,-0.058671,-0.175286,0.040212,-0.993439,0.107063,-0.180417,0.098169,0.978679,0.1000,0.1814,3.1007,0.083980,0.994140,-0.169920,-0.111075,-1.002432,-0.083854,-0.000201,-0.000018,0.018753,0.098169,0.978679,-0.180417,0.001871,0.018387,-0.003186,-0.2440,-0.1830,-0.1220,-0.024861,0.089432,-0.051600,-0.994345
152664.053000,-0.982687,-0.059074,-0.175604,0.040617,-0.993440,0.106902,-0.180767,0.097918,0.978639,0.0997,0.1818,3.1003,0.083490,0.994620,-0.170410,-0.110876,-1.002921,-0.084471,-0.000150,0.000246,0.019276,0.097918,0.978639,-0.180767,0.001652,0.018917,-0.003327,-0.1830,-0.1830,-0.1830,-0.025065,0.089601,-0.051497,-0.994330
152664.128000,-0.982892,-0.059407,-0.174341,0.040759,-0.993243,0.108659,-0.179618,0.099695,0.978672,0.1015,0.1806,3.1001,0.084960,0.994140,-0.169430,-0.113026,-1.002370,-0.081966,0.000158,0.000544,0.018736,0.099695,0.978672,-0.179618,0.001318,0.018368,-0.003499,-0.2440,-0.2440,-0.1830,-0.025184,0.088994,-0.052385,-0.994335
152664.203000,-0.982381,-0.058147,-0.177613,0.042104,-0.994794,0.092798,-0.182084,0.083685,0.979715,0.0852,0.1831,3.0988,0.074210,0.996580,-0.171870,-0.100325,-1.004217,-0.098497,-0.000528,-0.004883,0.020784,0.083685,0.979715,-0.182084,0.006628,0.020003,-0.003472,-0.1830,-0.1830,-0.3050,-0.025199,0.090413,-0.044361,-0.994597
152664.278000,-0.981391,-0.062654,-0.181508,0.043147,-0.993051,0.109494,-0.187107,0.099624,0.977275,0.1016,0.1882,3.0977,0.078120,0.999020,-0.177240,-0.107088,-1.008113,-0.088302,-0.000441,0.007701,0.024448,0.099624,0.977275,-0.187107,-0.005184,0.024815,-0.003809,-0.4270,-0.2440,-0.6100,-0.026611,0.092715,-0.052598,-0.993946
152664.353000,-0.981958,-0.063894,-0.177975,0.044270,-0.992706,0.112135,-0.183842,0.102233,0.977625,0.1042,0.1849,3.0965,0.089350,0.989250,-0.173820,-0.120010,-0.997571,-0.085223,0.000760,-0.001732,0.015172,0.102233,0.977625,-0.183842,0.003222,0.014502,-0.003612,-0.7930,-1.8310,-1.0370,-0.027204,0.090998,-0.053914,-0.994018
152664.428000,-0.974544,-0.076952,-0.210575,0.069051,-0.996614,0.044634,-0.213296,0.028958,0.976558,0.0296,0.2149,3.0709,-0.008780,0.978510,-0.212400,-0.022016,-0.985284,-0.177213,0.012200,0.020759,0.009280,0.028958,0.976558,-0.213296,-0.021358,0.007420,-0.012436,-1.2810,-9.1550,1.0370,-0.036742,0.106667,-0.018519,-0.993443
152664.503000,-0.980420,-0.102646,-0.168047,0.081048,-0.988103,0.130701,-0.179464,0.114523,0.977076,0.1167,0.1804,3.0591,0.184080,1.009760,-0.115230,-0.264760,-0.997889,-0.029984,-0.063392,-0.075644,0.032796,0.114523,0.977076,-0.179464,0.085007,0.032810,0.050135,2.0140,-16.9060,2.5630,-0.046239,0.087474,-0.061727,-0.993177
152664.579000,-0.979255,-0.096434,-0.178215,0.081409,-0.992627,0.089796,-0.185560,0.073425,0.979886,0.0748,0.1866,3.0586,0.081050,0.994140,-0.173820,-0.144260,-0.995821,-0.112369,-0.003488,-0.022205,0.019030,0.073425,0.979886,-0.185560,0.023775,0.017275,-0.001923,0.7930,-2.1970,-0.4270,-0.044731,0.091497,-0.041053,-0.993953
152664.654000,-0.979637,-0.097515,-0.175504,0.078412,-0.990532,0.112685,-0.184830,0.096629,0.978008,0.0985,0.1859,3.0617,0.077630,0.994620,-0.174310,-0.142448,-0.998758,-0.088716,-0.000104,0.004794,0.019581,0.096629,0.978008,-0.184830,-0.002847,0.019709,-0.003142,0.0610,0.0610,-1.0980,-0.044269,0.090673,-0.052671,-0.993501
152664.729000,-0.979692,-0.092980,-0.177648,0.076183,-0.992152,0.099152,-0.185473,0.083604,0.979086,0.0852,0.1866,3.0640,0.078120,0.993650,-0.175780,-0.137696,-0.997329,-0.103520,-0.000258,-0.009158,0.018928,0.083604,0.979086,-0.185473,0.010693,0.017670,-0.003956,-0.3660,0.2440,-0.4880,-0.042553,0.091342,-0.045972,-0.993847
152664.804000,-0.980175,-0.089935,-0.176549,0.072200,-0.991907,0.104443,-0.184513,0.089625,0.978735,0.0913,0.1856,3.0681,0.078610,0.993650,-0.174800,-0.135555,-0.998189,-0.096531,0.000222,-0.003500,0.018807,0.089625,0.978735,-0.184513,0.005138,0.018003,-0.003941,-0.2440,-0.1220,-0.1830,-0.040785,0.090825,-0.048818,-0.993833
152664.879000,-0.980436,-0.089221,-0.175455,0.070832,-0.991578,0.108425,-0.183651,0.093876,0.978499,0.0956,0.1847,3.0695,0.079580,0.993650,-0.173820,-0.136180,-0.998491,-0.091418,0.000394,-0.000117,0.018694,0.093876,0.978499,-0.183651,0.001836,0.018210,-0.003828,-0.4270,-0.0610,0.1830,-0.040263,0.090337,-0.050891,-0.993795
152664.954000,-0.980475,-0.087700,-0.176006,0.069512,-0.991828,0.106979,-0.183950,0.092656,0.978559,0.0944,0.1850,3.0708,0.080560,0.994140,-0.174310,-0.135494,-0.999064,-0.093279,0.000308,-0.002319,0.019334,0.092656,0.978559,-0.183950,0.004065,0.018617,-0.004020,-0.5490,0.0000,0.2440,-0.039547,0.090547,-0.050218,-0.993839
152665.029000,-0.980747,-0.086636,-0.175011,0.068589,-0.991926,0.106669,-0.182839,0.092611,0.978771,0.0943,0.1839,3.0718,0.080070,0.993650,-0.172850,-0.134363,-0.998573,-0.091797,0.000160,-0.001879,0.018541,0.092611,0.978771,-0.182839,0.003567,0.017919,-0.003675,-0.3050,-0.1830,-0.1830,-0.039044,0.090010,-0.050125,-0.993912
152665.104000,-0.980512,-0.087034,-0.176127,0.068545,-0.991734,0.108471,-0.184112,0.094284,0.978373,0.0961,0.1852,3.0718,0.079580,0.994620,-0.173820,-0.133980,-0.999798,-0.090935,-0.000217,0.000428,0.019637,0.094284,0.978373,-0.184112,0.001446,0.019297,-0.003374,-0.2440,-0.1830,-0.1830,-0.039137,0.090621,-0.051005,-0.993808
152665.179000,-0.980980,-0.083636,-0.175165,0.066425,-0.992572,0.101921,-0.182389,0.088347,0.979249,0.0900,0.1834,3.0740,0.080070,0.994140,-0.172850,-0.131416,-0.999054,-0.096038,0.000254,-0.006229,0.019000,0.088347,0.979249,-0.182389,0.007841,0.017927,-0.004129,-0.3660,-0.1830,0.0000,-0.037739,0.089921,-0.047850,-0.994083
152665.254000,-0.981048,-0.084694,-0.174273,0.065554,-0.991453,0.112801,-0.182337,0.099239,0.978215,0.1011,0.1834,3.0749,0.081540,0.994620,-0.172360,-0.134195,-1.000216,-0.084767,0.000379,0.003510,0.019495,0.099239,0.978215,-0.182337,-0.001577,0.019400,-0.003696,-0.4880,-0.1830,0.1830,-0.037795,0.089707,-0.053340,-0.993820
152665.329000,-0.981162,-0.082781,-0.174551,0.065246,-0.992444,0.103914,-0.181834,0.090568,0.979150,0.0922,0.1829,3.0752,0.081050,0.994620,-0.171870,-0.131858,-0.999676,-0.092943,-0.000128,-0.004860,0.019359,0.090568,0.979150,-0.181834,0.006587,0.018473,-0.003712,-0.1830,-0.1830,-0.1830,-0.037227,0.089627,-0.048910,-0.994077
152665.404000,-0.981016,-0.081143,-0.176134,0.063344,-0.992513,0.104428,-0.183289,0.091288,0.978811,0.0930,0.1843,3.0771,0.080070,0.993650,-0.172850,-0.128733,-0.999189,-0.093155,-0.000382,-0.003191,0.018537,0.091288,0.978811,-0.183289,0.004890,0.017879,-0.003225,-0.1220,-0.2440,-0.3050,-0.036339,0.090396,-0.049223,-0.994025
152665.479000,-0.981261,-0.081087,-0.174789,0.062535,-0.992055,0.109160,-0.182252,0.096184,0.978536,0.0980,0.1833,3.0779,0.081540,0.995110,-0.172360,-0.130576,-1.000920,-0.087807,0.000174,0.000424,0.019977,0.096184,0.978536,-0.182252,0.001487,0.019565,-0.003785,-0.2440,-0.2440,-0.1830,-0.036124,0.089802,-0.051648,-0.993963
152665.555000,-0.981226,-0.080458,-0.175275,0.062419,-0.992393,0.106112,-0.182479,0.093179,0.978784,0.0949,0.1835,3.0781,0.081050,0.994620,-0.172360,-0.129343,-1.000284,-0.090815,-0.000136,-0.002182,0.019462,0.093179,0.978784,-0.182479,0.003990,0.018841,-0.003554,-0.2440,-0.3050,-0.1830,-0.035934,0.089975,-0.050122,-0.994033
152665.630000,-0.981340,-0.080601,-0.174572,0.062200,-0.992156,0.108430,-0.181942,0.095548,0.978656,0.0973,0.1830,3.0783,0.081050,0.994620,-0.171870,-0.129701,-1.000413,-0.087914,0.000096,0.000238,0.019371,0.095548,0.978656,-0.181942,0.001607,0.018966,-0.003604,-0.2440,-0.3050,-0.1830,-0.035916,0.089666,-0.051302,-0.994001
152665.705000,-0.981257,-0.079272,-0.175643,0.061518,-0.992639,0.104321,-0.182620,0.091560,0.978911,0.0933,0.1837,3.0790,0.081050,0.994620,-0.172360,-0.128103,-1.000294,-0.092459,-0.000382,-0.003825,0.019457,0.091560,0.978911,-0.182620,0.005609,0.018715,-0.003413,-0.1220,-0.4270,-0.4270,-0.035407,0.090099,-0.049262,-0.994083
152665.780000,-0.981368,-0.077885,-0.175645,0.060052,-0.992694,0.104657,-0.182513,0.092160,0.978875,0.0939,0.1835,3.0805,0.080560,0.994140,-0.172360,-0.126214,-1.000077,-0.091803,-0.000111,-0.002772,0.018957,0.092160,0.978875,-0.182513,0.004507,0.018286,-0.003517,-0.1830,-0.3660,-0.1830,-0.034689,0.090071,-0.049496,-0.994100
152665.855000,-0.981474,-0.076486,-0.175667,0.058503,-0.992711,0.105369,-0.182446,0.093140,0.978794,0.0949,0.1835,3.0821,0.081050,0.994140,-0.172360,-0.125308,-1.000313,-0.090898,-0.000014,-0.002267,0.018995,0.093140,0.978794,-0.182446,0.004020,0.018356,-0.003584,-0.2440,-0.1830,-0.1220,-0.033947,0.090059,-0.049921,-0.994105
152665.930000,-0.981564,-0.075011,-0.175801,0.057027,-0.992814,0.105210,-0.182430,0.093245,0.978787,0.0950,0.1835,3.0836,0.081540,0.994620,-0.172360,-0.124343,-1.000956,-0.090835,-0.000104,-0.002609,0.019497,0.093245,0.978787,-0.182430,0.004417,0.018828,-0.003604,-0.1830,-0.1830,-0.2440,-0.033204,0.090087,-0.049907,-0.994128
152666.005000,-0.981629,-0.075548,-0.175205,0.057148,-0.992530,0.107787,-0.182039,0.095794,0.978614,0.0976,0.1831,3.0834,0.080560,0.994140,-0.171870,-0.124072,-1.000635,-0.087627,0.000125,0.000946,0.018867,0.095794,0.978614,-0.182039,0.000859,0.018543,-0.003503,-0.3050,-0.2440,-0.1220,-0.033372,0.089843,-0.051198,-0.994079
152666.080000,-0.981429,-0.075596,-0.176303,0.057284,-0.992636,0.106738,-0.183073,0.094656,0.978532,0.0964,0.1841,3.0833,0.081050,0.994620,-0.172850,-0.124260,-1.001102,-0.089830,-0.000175,-0.000667,0.019558,0.094656,0.978532,-0.183073,0.002526,0.019098,-0.003447,-0.2440,-0.2440,-0.1830,-0.033419,0.090381,-0.050650,-0.994057
152666.155000,-0.981873,-0.072997,-0.174921,0.055628,-0.993204,0.102228,-0.181195,0.090644,0.979261,0.0923,0.1822,3.0850,0.081050,0.994140,-0.171380,-0.122172,-1.000395,-0.092398,0.000189,-0.004831,0.018798,0.090644,0.979261,-0.181195,0.006489,0.017882,-0.003860,-0.2440,-0.2440,-0.1220,-0.032341,0.089541,-0.048496,-0.994276
152666.230000,-0.981787,-0.071985,-0.175819,0.054001,-0.993003,0.105016,-0.182149,0.093609,0.978805,0.0953,0.1832,3.0866,0.081050,0.994620,-0.171870,-0.120953,-1.001333,-0.089885,-0.000229,-0.001729,0.019369,0.093609,0.978805,-0.182149,0.003546,0.018817,-0.003397,-0.1830,-0.2440,-0.2440,-0.031681,0.090016,-0.049947,-0.994182
152666.305000,-0.981573,-0.075771,-0.175424,0.056410,-0.992010,0.112844,-0.182573,0.100868,0.978004,0.1028,0.1836,3.0842,0.080070,0.994620,-0.171870,-0.123808,-1.001551,-0.082382,-0.000171,0.006710,0.019277,0.100868,0.978004,-0.182573,-0.004699,0.019640,-0.002973,-0.1830,-0.1220,-0.3050,-0.033247,0.090046,-0.053754,-0.993930
152666.380000,-0.981655,-0.073387,-0.175977,0.056013,-0.993232,0.101747,-0.182252,0.090023,0.979122,0.0917,0.1833,3.0846,0.081540,0.995110,-0.172360,-0.122741,-1.001345,-0.094039,-0.000186,-0.005877,0.019961,0.090023,0.979122,-0.182252,0.007648,0.018979,-0.003784,-0.1830,-0.2440,-0.1830,-0.032538,0.090077,-0.048221,-0.994235
152666.455000,-0.981808,-0.074094,-0.174824,0.055483,-0.992487,0.109046,-0.181590,0.097362,0.978543,0.0992,0.1826,3.0851,0.081050,0.994620,-0.171380,-0.123309,-1.001339,-0.085582,0.000086,0.002106,0.019275,0.097362,0.978543,-0.181590,-0.000220,0.019076,-0.003468,-0.1830,-0.2440,-0.1830,-0.032587,0.089634,-0.051909,-0.994087
152666.531000,-0.981747,-0.073018,-0.175619,0.055157,-0.992992,0.104520,-0.182020,0.092925,0.978894,0.0946,0.1830,3.0855,0.081540,0.994620,-0.171870,-0.122493,-1.001116,-0.090659,-0.000170,-0.002928,0.019403,0.092925,0.978894,-0.182020,0.004723,0.018717,-0.003526,-0.2440,-0.2440,-0.0610,-0.032231,0.089932,-0.049650,-0.994187
152666.606000,-0.981775,-0.074171,-0.174973,0.055409,-0.992410,0.109783,-0.181787,0.098087,0.978434,0.0999,0.1828,3.0852,0.081540,0.994140,-0.171380,-0.123804,-1.000891,-0.084995,-0.000029,0.002329,0.018844,0.098087,0.978434,-0.181787,-0.000461,0.018698,-0.003268,-0.1830,-0.1830,-0.1830,-0.032589,0.089723,-0.052278,-0.994060
152666.681000,-0.981778,-0.073655,-0.175178,0.055901,-0.992983,0.104211,-0.181624,0.092519,0.979006,0.0942,0.1826,3.0847,0.080560,0.994620,-0.171380,-0.122329,-1.000997,-0.090392,-0.000195,-0.002353,0.019238,0.092519,0.979006,-0.181624,0.004130,0.018623,-0.003434,-0.1220,-0.2440,-0.2440,-0.032578,0.089720,-0.049469,-0.994204
152666.756000,-0.981861,-0.072622,-0.175145,0.054726,-0.992973,0.104930,-0.181535,0.093442,0.978935,0.0952,0.1825,3.0859,0.081050,0.994620,-0.171380,-0.121794,-1.001178,-0.089544,-0.000081,-0.001906,0.019275,0.093442,0.978935,-0.181535,0.003700,0.018683,-0.003524,-0.1830,-0.3050,-0.1830,-0.032022,0.089690,-0.049882,-0.994204
152666.831000,-0.981651,-0.071594,-0.176737,0.053764,-0.993155,0.103691,-0.182951,0.092286,0.978781,0.0940,0.1840,3.0869,0.080560,0.994140,-0.172360,-0.119793,-1.000876,-0.091696,-0.000539,-0.002611,0.018958,0.092286,0.978781,-0.182951,0.004381,0.018380,-0.003079,-0.0610,-0.3050,-0.3660,-0.031523,0.090448,-0.049281,-0.994181
152666.906000,-0.981857,-0.073028,-0.174995,0.054246,-0.992471,0.109808,-0.181697,0.098323,0.978427,0.1002,0.1827,3.0864,0.081050,0.994140,-0.171380,-0.122189,-1.001078,-0.084663,0.000109,0.003054,0.018805,0.098323,0.978427,-0.181697,-0.001190,0.018716,-0.003359,-0.1830,-0.1830,-0.1220,-0.032008,0.089704,-0.052343,-0.994077
152666.981000,-0.981904,-0.069577,-0.176134,0.052690,-0.993711,0.098806,-0.181901,0.087738,0.979395,0.0893,0.1829,3.0880,0.081050,0.995110,-0.171870,-0.118548,-1.001563,-0.095763,-0.000370,-0.007711,0.019818,0.087738,0.979395,-0.181901,0.009427,0.018713,-0.003648,-0.1220,-0.2440,-0.2440,-0.030740,0.090016,-0.046900,-0.994360
152667.056000,-0.981798,-0.072113,-0.175708,0.052928,-0.992351,0.111530,-0.182406,0.100200,0.978104,0.1021,0.1834,3.0877,0.080560,0.995110,-0.171870,-0.120655,-1.002403,-0.083092,-0.000177,0.005566,0.019796,0.100200,0.978104,-0.182406,-0.003527,0.020015,-0.003142,-0.1220,-0.2440,-0.2440,-0.031448,0.090068,-0.053251,-0.994014
152667.131000,-0.981866,-0.071203,-0.175695,0.053287,-0.993079,0.104668,-0.181932,0.093407,0.978865,0.0951,0.1830,3.0874,0.082030,0.994620,-0.171870,-0.121166,-1.001354,-0.090256,-0.000080,-0.002933,0.019439,0.093407,0.978865,-0.181932,0.004734,0.018736,-0.003615,-0.1830,-0.2440,-0.0610,-0.031304,0.089927,-0.049807,-0.994209
152667.206000,-0.981805,-0.072331,-0.175579,0.053685,-0.992622,0.108719,-0.182148,0.097315,0.978444,0.0991,0.1832,3.0870,0.081050,0.995110,-0.171870,-0.121376,-1.002102,-0.086089,-0.000102,0.002104,0.019845,0.097315,0.978444,-0.182148,-0.000150,0.019664,-0.003401,-0.1830,-0.1830,-0.2440,-0.031691,0.089963,-0.051815,-0.994091
152667.281000,-0.981858,-0.070686,-0.175952,0.053146,-0.993314,0.102481,-0.182019,0.091271,0.979050,0.0930,0.1830,3.0875,0.081050,0.994620,-0.171870,-0.119644,-1.001276,-0.092242,-0.000221,-0.004130,0.019362,0.091271,0.979050,-0.182019,0.005885,0.018572,-0.003527,-0.1220,-0.2440,-0.3050,-0.031137,0.090009,-0.048718,-0.994261
152667.356000,-0.981798,-0.070865,-0.176211,0.052342,-0.992812,0.107633,-0.182572,0.096450,0.978450,0.0983,0.1836,3.0883,0.081540,0.995110,-0.172360,-0.120202,-1.002241,-0.087554,-0.000148,0.000721,0.019977,0.096450,0.978450,-0.182572,0.001221,0.019650,-0.003465,-0.1830,-0.2440,-0.1830,-0.030984,0.090227,-0.051323,-0.994115
152667.431000,-0.982065,-0.069058,-0.175439,0.051654,-0.993452,0.101907,-0.181328,0.091017,0.979202,0.0927,0.1823,3.0890,0.080560,0.994140,-0.171380,-0.117702,-1.000934,-0.091940,0.000122,-0.003949,0.018766,0.091017,0.979202,-0.181328,0.005623,0.017952,-0.003727,-0.2440,-0.2440,-0.0610,-0.030350,0.089701,-0.048506,-0.994324
152667.506000,-0.981713,-0.073517,-0.175596,0.053623,-0.991862,0.115474,-0.182656,0.103946,0.977667,0.1059,0.1837,3.0870,0.081540,0.995110,-0.171870,-0.123027,-1.002486,-0.079488,-0.000285,0.008441,0.019849,0.103946,0.977667,-0.182656,-0.006288,0.020430,-0.002893,-0.1830,-0.2440,-0.1220,-0.031980,0.090114,-0.055192,-0.993887
152667.582000,-0.981708,-0.073353,-0.175698,0.055468,-0.992963,0.104629,-0.182136,0.092970,0.978868,0.0947,0.1832,3.0852,0.081050,0.994140,-0.171870,-0.122293,-1.000631,-0.090575,-0.000174,-0.002424,0.018901,0.092970,0.978868,-0.182136,0.004177,0.018278,-0.003406,-0.1220,-0.1220,-0.3050,-0.032394,0.089983,-0.049689,-0.994175
152667.657000,-0.981574,-0.076104,-0.175271,0.056885,-0.992058,0.112184,-0.182416,0.100146,0.978108,0.1020,0.1834,3.0837,0.081050,0.994620,-0.171870,-0.125128,-1.001391,-0.083285,-0.000121,0.004978,0.019358,0.100146,0.978108,-0.182416,-0.002990,0.019514,-0.003130,-0.1830,-0.2440,-0.2440,-0.033450,0.089966,-0.053406,-0.993949
152667.732000,-0.981821,-0.073904,-0.174832,0.056290,-0.993020,0.103649,-0.181272,0.091924,0.979127,0.0936,0.1823,3.0843,0.082510,0.994620,-0.171380,-0.124554,-1.000796,-0.091330,-0.000003,-0.004940,0.019374,0.091924,0.979127,-0.181272,0.006687,0.018458,-0.003787,-0.1830,-0.1830,-0.1220,-0.032738,0.089543,-0.049177,-0.994229
152667.807000,-0.981608,-0.074373,-0.175823,0.055968,-0.992637,0.107420,-0.182518,0.095604,0.978543,0.0974,0.1835,3.0846,0.080560,0.995110,-0.171870,-0.122869,-1.001737,-0.087749,-0.000546,0.000873,0.019811,0.095604,0.978543,-0.182518,0.001068,0.019576,-0.003031,0.0610,-0.1220,-0.5490,-0.032779,0.090119,-0.051058,-0.994081
152667.882000,-0.981516,-0.077240,-0.175103,0.058005,-0.991965,0.112431,-0.182380,0.100196,0.978109,0.1021,0.1834,3.0826,0.081050,0.994620,-0.171870,-0.126282,-1.001251,-0.083233,-0.000075,0.005026,0.019358,0.100196,0.978109,-0.182380,-0.003040,0.019513,-0.003165,-0.1830,-0.1220,-0.2440,-0.034018,0.089917,-0.053481,-0.993930
152667.957000,-0.981329,-0.079043,-0.175347,0.060107,-0.992024,0.110796,-0.182706,0.098187,0.978252,0.1000,0.1837,3.0804,0.082030,0.994140,-0.172360,-0.128855,-1.000377,-0.085987,-0.000044,0.001933,0.019069,0.098187,0.978252,-0.182706,-0.000042,0.018876,-0.003325,-0.3050,-0.3660,0.0610,-0.035000,0.090059,-0.052565,-0.993932
152668.032000,-0.981561,-0.076189,-0.175308,0.058975,-0.993097,0.101395,-0.181823,0.089187,0.979278,0.0908,0.1828,3.0816,0.081050,0.994620,-0.171870,-0.125204,-1.000401,-0.094339,-0.000168,-0.006274,0.019351,0.089187,0.979278,-0.181823,0.007969,0.018344,-0.003723,-0.1220,-0.2440,-0.3050,-0.033987,0.089801,-0.047922,-0.994225
152668.107000,-0.981168,-0.078838,-0.176335,0.059470,-0.991865,0.112552,-0.183774,0.099946,0.977874,0.1019,0.1848,3.0811,0.080560,0.994620,-0.172850,-0.126977,-1.001192,-0.084422,-0.000533,0.005291,0.019508,0.099946,0.977874,-0.183774,-0.003257,0.019766,-0.002747,0.0000,-0.1220,-0.4270,-0.034791,0.090585,-0.053454,-0.993844
152668.182000,-0.981796,-0.073950,-0.174953,0.057517,-0.993601,0.097207,-0.181022,0.085375,0.979766,0.0869,0.1820,3.0831,0.080560,0.994140,-0.171380,-0.122626,-0.999804,-0.097621,0.000084,-0.009735,0.018727,0.085375,0.979766,-0.181022,0.011265,0.017387,-0.004033,-0.1830,-0.1220,-0.1830,-0.033052,0.089497,-0.045903,-0.994380
152668.257000,-0.981508,-0.074176,-0.176463,0.055591,-0.992592,0.108027,-0.183169,0.096220,0.978361,0.0980,0.1842,3.0850,0.081050,0.994620,-0.172850,-0.122826,-1.001419,-0.088253,-0.000182,0.000940,0.019558,0.096220,0.978361,-0.183169,0.000963,0.019268,-0.003352,-0.3050,-0.4270,0.0610,-0.032636,0.090447,-0.051368,-0.994040
152668.332000,-0.981886,-0.072999,-0.174844,0.055231,-0.992998,0.104422,-0.181242,0.092874,0.979043,0.0946,0.1822,3.0854,0.081050,0.994140,-0.171380,-0.122188,-1.000599,-0.090148,0.000268,-0.002550,0.018807,0.092874,0.979043,-0.181242,0.004259,0.018099,-0.003813,-0.2440,-0.2440,-0.1220,-0.032244,0.089539,-0.049611,-0.994224
152668.407000,-0.981675,-0.073642,-0.175761,0.055233,-0.992677,0.107431,-0.182385,0.095755,0.978553,0.0975,0.1834,3.0854,0.080560,0.994140,-0.171870,-0.122086,-1.000875,-0.087684,-0.000237,0.000932,0.018867,0.095755,0.978553,-0.182385,0.000899,0.018604,-0.003157,-0.1830,-0.1830,-0.2440,-0.032410,0.090068,-0.051098,-0.994096
152668.482000,-0.981788,-0.073983,-0.174981,0.055695,-0.992675,0.107214,-0.181631,0.095516,0.978717,0.0973,0.1826,3.0849,0.081050,0.994140,-0.171380,-0.123135,-1.000718,-0.087498,0.000018,0.000179,0.018810,0.095516,0.978717,-0.181631,0.001617,0.018426,-0.003424,-0.1830,-0.2440,-0.1830,-0.032611,0.089679,-0.050982,-0.994130
152668.558000,-0.981638,-0.074556,-0.175580,0.056071,-0.992570,0.107984,-0.182327,0.096156,0.978525,0.0980,0.1834,3.0845,0.081540,0.994140,-0.171870,-0.123984,-1.000741,-0.087454,-0.000221,0.000357,0.018940,0.096156,0.978525,-0.182327,0.001483,0.018610,-0.003216,-0.1830,-0.3050,-0.1830,-0.032851,0.090010,-0.051339,-0.994074
152668.633000,-0.981820,-0.071704,-0.175752,0.054483,-0.993401,0.100929,-0.181829,0.089518,0.979247,0.0912,0.1828,3.0862,0.081050,0.994620,-0.171870,-0.120689,-1.000987,-0.094004,-0.000128,-0.005935,0.019353,0.089518,0.979247,-0.181829,0.007637,0.018375,-0.003717,-0.1830,-0.2440,-0.2440,-0.031728,0.089909,-0.047885,-0.994292
152668.708000,-0.981798,-0.073651,-0.175068,0.054599,-0.992291,0.111257,-0.181912,0.099674,0.978250,0.1015,0.1829,3.0860,0.081050,0.994140,-0.171380,-0.122791,-1.001118,-0.083307,-0.000035,0.004451,0.018800,0.099674,0.978250,-0.181912,-0.002541,0.018893,-0.003143,-0.1830,-0.2440,-0.1830,-0.032255,0.089782,-0.053050,-0.994024
152668.783000,-0.981745,-0.073187,-0.175557,0.055295,-0.992962,0.104730,-0.181987,0.093111,0.978883,0.0948,0.1830,3.0853,0.081050,0.995110,-0.171870,-0.122226,-1.001625,-0.090335,-0.000175,-0.002209,0.019845,0.093111,0.978883,-0.181987,0.004054,0.019225,-0.003562,-0.1830,-0.2440,-0.2440,-0.032308,0.089909,-0.049750,-0.994182
152668.858000,-0.981637,-0.074290,-0.175699,0.055609,-0.992489,0.108961,-0.182474,0.097190,0.978395,0.0990,0.1835,3.0850,0.081050,0.994140,-0.171870,-0.123219,-1.000893,-0.086326,-0.000279,0.001915,0.018902,0.097190,0.978395,-0.182474,-0.000043,0.018751,-0.003069,-0.0610,-0.1830,-0.3050,-0.032669,0.090079,-0.051846,-0.994047
152668.933000,-0.981585,-0.073941,-0.176138,0.055833,-0.992836,0.105637,-0.182687,0.093857,0.978681,0.0956,0.1837,3.0848,0.081050,0.994620,-0.172360,-0.122741,-1.001177,-0.090140,-0.000297,-0.001474,0.019463,0.093857,0.978681,-0.182687,0.003312,0.018945,-0.003346,-0.0610,-0.1830,-0.3050,-0.032635,0.090237,-0.050168,-0.994120
152669.008000,-0.981603,-0.073566,-0.176189,0.055311,-0.992786,0.106376,-0.182744,0.094674,0.978592,0.0964,0.1838,3.0853,0.081050,0.994140,-0.172360,-0.122326,-1.000821,-0.089362,-0.000227,-0.000675,0.018997,0.094674,0.978592,-0.182744,0.002486,0.018559,-0.003286,-0.0610,-0.1220,-0.3050,-0.032410,0.090265,-0.050561,-0.994105
152669.083000,-0.981445,-0.077031,-0.175593,0.057421,-0.991803,0.114149,-0.182946,0.101948,0.977823,0.1039,0.1840,3.0832,0.081540,0.994620,-0.172360,-0.126378,-1.001460,-0.082055,-0.000115,0.006333,0.019481,0.101948,0.977823,-0.182946,-0.004286,0.019792,-0.003087,-0.1830,-0.1830,-0.1830,-0.033821,0.090188,-0.054358,-0.993865
152669.158000,-0.981357,-0.078209,-0.175564,0.059725,-0.992332,0.108210,-0.182681,0.095707,0.978503,0.0975,0.1837,3.0808,0.081050,0.994620,-0.172360,-0.127067,-1.000804,-0.088269,-0.000182,0.000418,0.019464,0.095707,0.978503,-0.182681,0.001462,0.019123,-0.003353,-0.1220,-0.1830,-0.2440,-0.034692,0.090101,-0.051287,-0.994006
152669.233000,-0.981390,-0.077536,-0.175673,0.059322,-0.992523,0.106669,-0.182630,0.094263,0.978652,0.0960,0.1837,3.0812,0.081540,0.994140,-0.172360,-0.126825,-1.000256,-0.089862,-0.000174,-0.001594,0.019032,0.094263,0.978652,-0.182630,0.003390,0.018487,-0.003400,-0.1220,-0.1830,-0.2440,-0.034419,0.090112,-0.050534,-0.994053
152669.308000,-0.981800,-0.073800,-0.174993,0.056851,-0.993365,0.099971,-0.181210,0.088203,0.979481,0.0898,0.1822,3.0838,0.080560,0.994140,-0.171380,-0.122471,-1.000097,-0.094776,0.000059,-0.006833,0.018751,0.088203,0.979481,-0.181210,0.008437,0.017673,-0.003845,-0.1830,-0.0610,-0.3050,-0.032850,0.089560,-0.047312,-0.994315
152669.383000,-0.981355,-0.077745,-0.175778,0.057990,-0.991688,0.114859,-0.183247,0.102524,0.977706,0.1045,0.1843,3.0826,0.081050,0.994620,-0.172360,-0.126569,-1.001449,-0.081397,-0.000351,0.007437,0.019437,0.102524,0.977706,-0.183247,-0.005355,0.019920,-0.002787,-0.1830,-0.3050,-0.2440,-0.034145,0.090314,-0.054683,-0.993825
152669.458000,-0.981525,-0.077364,-0.174997,0.059470,-0.992662,0.105284,-0.181858,0.092932,0.978924,0.0946,0.1829,3.0811,0.081050,0.994620,-0.171870,-0.126424,-1.000597,-0.090555,0.000021,-0.002443,0.019368,0.092932,0.978924,-0.181858,0.004223,0.018699,-0.003688,-0.1830,-0.2440,-0.2440,-0.034411,0.089741,-0.049847,-0.994122
152669.533000,-0.981070,-0.079871,-0.176417,0.060848,-0.991986,0.110728,-0.183848,0.097897,0.978068,0.0998,0.1849,3.0796,0.080070,0.994620,-0.172850,-0.127502,-1.000917,-0.086409,-0.000697,0.003693,0.019479,0.097897,0.978068,-0.183848,-0.001701,0.019584,-0.002673,0.0610,-0.3660,-0.4880,-0.035397,0.090622,-0.052478,-0.993872
152669.609000,-0.980944,-0.079707,-0.177189,0.061852,-0.992641,0.104108,-0.184183,0.091165,0.978655,0.0929,0.1852,3.0786,0.079580,0.994140,-0.173330,-0.126591,-0.999947,-0.093657,-0.000889,-0.002754,0.019072,0.091165,0.978655,-0.184183,0.004543,0.018536,-0.002811,0.3660,-0.4880,-0.8540,-0.035603,0.090887,-0.049112,-0.994012
152669.684000,-0.980759,-0.079252,-0.178411,0.061651,-0.992859,0.102128,-0.185231,0.089163,0.978642,0.0909,0.1863,3.0788,0.077140,0.993650,-0.174310,-0.123305,-0.999600,-0.096278,-0.000877,-0.002396,0.018611,0.089163,0.978642,-0.185231,0.004108,0.018125,-0.002735,0.3050,-0.4880,-0.7930,-0.035438,0.091458,-0.048111,-0.994015
152669.759000,-0.981184,-0.078970,-0.176186,0.060671,-0.992412,0.106941,-0.183295,0.094240,0.978531,0.0960,0.1843,3.0798,0.079580,0.993650,-0.173330,-0.126013,-0.999819,-0.090554,0.000310,0.000272,0.018599,0.094240,0.978531,-0.183295,0.001459,0.018174,-0.003697,-0.2440,-0.2440,-0.0610,-0.035121,0.090413,-0.050599,-0.993998
152669.834000,-0.980628,-0.078459,-0.179480,0.060836,-0.992956,0.101674,-0.186193,0.088786,0.978493,0.0905,0.1873,3.0796,0.077630,0.994140,-0.175290,-0.122664,-1.000237,-0.097709,-0.001062,-0.003239,0.019310,0.088786,0.978493,-0.186193,0.005014,0.018756,-0.002751,0.1830,-0.4880,-0.6710,-0.035034,0.091971,-0.047903,-0.993992
152669.909000,-0.980685,-0.080998,-0.178036,0.062422,-0.992235,0.107578,-0.185367,0.094387,0.978126,0.0962,0.1864,3.0780,0.076660,0.994140,-0.174800,-0.124582,-1.000440,-0.091353,-0.000251,0.003430,0.019147,0.094387,0.978126,-0.185367,-0.001576,0.019141,-0.003089,0.0000,-0.6100,-0.6100,-0.036076,0.091412,-0.050803,-0.993862
152669.984000,-0.980804,-0.079711,-0.177959,0.062553,-0.993015,0.100039,-0.184690,0.086987,0.978940,0.0886,0.1858,3.0779,0.076660,0.994620,-0.174800,-0.123364,-1.000364,-0.098758,-0.000114,-0.004148,0.019611,0.086987,0.978940,-0.184690,0.005834,0.018803,-0.003770,-0.1830,-0.4880,-0.2440,-0.035778,0.091202,-0.047035,-0.994077
152670.059000,-0.980764,-0.080518,-0.177817,0.062396,-0.992485,0.105260,-0.184956,0.092140,0.978418,0.0939,0.1860,3.0781,0.076660,0.994620,-0.174800,-0.124188,-1.000762,-0.093562,-0.000055,0.001141,0.019619,0.092140,0.978418,-0.184956,0.000680,0.019325,-0.003504,-0.2440,-0.4880,-0.1830,-0.035946,0.091246,-0.049651,-0.993940
152670.134000,-0.980699,-0.077972,-0.179304,0.061055,-0.993311,0.098010,-0.185747,0.085171,0.978899,0.0868,0.1868,3.0794,0.076660,0.994620,-0.175780,-0.121214,-1.000515,-0.101597,-0.000362,-0.006002,0.019792,0.085171,0.978899,-0.185747,0.007676,0.018851,-0.003688,-0.1830,-0.3660,-0.3660,-0.034963,0.091805,-0.046067,-0.994096
152670.209000,-0.980760,-0.081268,-0.177494,0.062127,-0.991892,0.110862,-0.185065,0.097702,0.977857,0.0996,0.1861,3.0783,0.076660,0.994620,-0.174800,-0.124990,-1.001172,-0.087940,0.000196,0.006836,0.019596,0.097702,0.977857,-0.185065,-0.004882,0.019885,-0.003394,-0.3050,-0.2440,-0.1830,-0.036073,0.091206,-0.052467,-0.993794
152670.284000,-0.980968,-0.078853,-0.177435,0.062122,-0.993250,0.097957,-0.183961,0.085070,0.979245,0.0867,0.1850,3.0784,0.076660,0.994140,-0.174310,-0.122663,-0.999742,-0.100223,0.000125,-0.006159,0.019039,0.085070,0.979245,-0.183961,0.007727,0.018018,-0.004007,-0.3660,-0.1830,-0.0610,-0.035450,0.090879,-0.046025,-0.994166
152670.359000,-0.980951,-0.079928,-0.177051,0.061385,-0.992271,0.107846,-0.184302,0.094923,0.978275,0.0967,0.1854,3.0791,0.077140,0.994140,-0.174310,-0.124268,-1.000519,-0.090373,0.000368,0.003452,0.019085,0.094923,0.978275,-0.184302,-0.001643,0.018978,-0.003667,-0.5490,-0.0610,0.1830,-0.035544,0.090891,-0.051003,-0.993919
152670.434000,-0.981360,-0.080242,-0.174626,0.062021,-0.992278,0.107414,-0.181897,0.094581,0.978758,0.0963,0.1829,3.0785,0.079100,0.994140,-0.172360,-0.127299,-1.000071,-0.089060,0.000786,0.001112,0.018854,0.094581,0.978758,-0.181897,0.000617,0.018436,-0.004132,-0.6710,0.0000,0.3050,-0.035779,0.089666,-0.050802,-0.994032
152670.509000,-0.980963,-0.080633,-0.176664,0.062804,-0.992561,0.104295,-0.183759,0.091215,0.978730,0.0929,0.1848,3.0777,0.077630,0.995110,-0.173330,-0.125770,-1.000910,-0.093140,-0.000465,-0.000704,0.019880,0.091215,0.978730,-0.183759,0.002550,0.019466,-0.003241,-0.1830,-0.2440,-0.2440,-0.036075,0.090648,-0.049172,-0.994014
152670.585000,-0.981272,-0.078751,-0.175793,0.061347,-0.992856,0.102338,-0.182596,0.089637,0.979093,0.0913,0.1836,3.0792,0.078610,0.995110,-0.172850,-0.125118,-1.000868,-0.094391,0.000098,-0.003353,0.019852,0.089637,0.979093,-0.182596,0.005100,0.019077,-0.003927,-0.1830,-0.1830,-0.2440,-0.035231,0.090126,-0.048277,-0.994136
152670.660000,-0.981176,-0.077829,-0.176737,0.059939,-0.992727,0.104406,-0.183578,0.091847,0.978705,0.0936,0.1846,3.0806,0.079100,0.994620,-0.173330,-0.124387,-1.000742,-0.092807,-0.000261,-0.001586,0.019507,0.091847,0.978705,-0.183578,0.003387,0.018972,-0.003420,-0.1830,-0.2440,-0.2440,-0.034648,0.090617,-0.049357,-0.994058
152670.735000,-0.981432,-0.077389,-0.175504,0.059696,-0.992789,0.103950,-0.182283,0.091543,0.978975,0.0932,0.1833,3.0808,0.078120,0.995110,-0.172360,-0.123430,-1.001188,-0.091881,0.000104,-0.000897,0.019728,0.091543,0.978975,-0.182283,0.002688,0.019202,-0.003752,-0.1830,-0.1830,-0.2440,-0.034473,0.089975,-0.049162,-0.994132
152670.810000,-0.981328,-0.075046,-0.177097,0.057812,-0.993251,0.100546,-0.183447,0.088430,0.979044,0.0901,0.1845,3.0827,0.078610,0.994620,-0.173330,-0.121088,-1.000791,-0.096164,-0.000291,-0.004600,0.019463,0.088430,0.979044,-0.183447,0.006311,0.018644,-0.003550,-0.2440,-0.1830,-0.1220,-0.033409,0.090663,-0.047520,-0.994186
152670.885000,-0.981308,-0.077636,-0.176090,0.058609,-0.992113,0.110800,-0.183303,0.098409,0.978119,0.1003,0.1843,3.0819,0.079100,0.994620,-0.172850,-0.124403,-1.001291,-0.085688,-0.000039,0.005140,0.019403,0.098409,0.978119,-0.183303,-0.003187,0.019555,-0.003217,-0.1830,-0.2440,-0.1830,-0.034270,0.090397,-0.052622,-0.993924
152670.960000,-0.981375,-0.077429,-0.175804,0.059884,-0.992876,0.103009,-0.182528,0.090562,0.979021,0.0922,0.1836,3.0806,0.078120,0.994620,-0.172360,-0.123376,-1.000611,-0.092928,-0.000126,-0.001920,0.019250,0.090562,0.979021,-0.182528,0.003659,0.018671,-0.003505,-0.1220,-0.2440,-0.2440,-0.034531,0.090111,-0.048678,-0.994142
152671.035000,-0.981281,-0.075307,-0.177245,0.058191,-0.993298,0.099864,-0.183578,0.087681,0.979087,0.0893,0.1846,3.0824,0.077630,0.994620,-0.173330,-0.120357,-1.000746,-0.096747,-0.000403,-0.004373,0.019394,0.087681,0.979087,-0.183578,0.006075,0.018623,-0.003419,-0.1220,-0.2440,-0.2440,-0.033570,0.090733,-0.047160,-0.994191
152671.110000,-0.981320,-0.074074,-0.177550,0.056388,-0.993116,0.102670,-0.183933,0.090740,0.978741,0.0924,0.1850,3.0842,0.078120,0.994620,-0.173820,-0.119474,-1.001214,-0.094241,-0.000142,-0.001751,0.019531,0.090740,0.978741,-0.183933,0.003521,0.018961,-0.003552,-0.1830,-0.2440,-0.2440,-0.032808,0.090904,-0.048638,-0.994130
152671.185000,-0.981626,-0.072011,-0.176705,0.054916,-0.993491,0.099801,-0.182741,0.088264,0.979191,0.0899,0.1838,3.0857,0.077630,0.994620,-0.172850,-0.117283,-1.001133,-0.095650,0.000042,-0.003803,0.019304,0.088264,0.979191,-0.182741,0.005479,0.018515,-0.003778,-0.1220,-0.1830,-0.2440,-0.031914,0.090379,-0.047287,-0.994272
152671.260000,-0.981376,-0.077041,-0.175973,0.057398,-0.991808,0.114115,-0.183323,0.101889,0.977758,0.1038,0.1844,3.0832,0.078120,0.994620,-0.172360,-0.122961,-1.001657,-0.081507,-0.000259,0.009723,0.019206,0.101889,0.977758,-0.183323,-0.007667,0.019933,-0.002709,-0.1220,-0.2440,-0.2440,-0.033818,0.090380,-0.054335,-0.993849
152671.335000,-0.981313,-0.073123,-0.177980,0.057183,-0.994013,0.093108,-0.183723,0.081191,0.979619,0.0827,0.1848,3.0834,0.077140,0.994620,-0.173330,-0.117579,-1.000392,-0.103216,-0.000891,-0.010501,0.019314,0.081191,0.979619,-0.183723,0.012072,0.018102,-0.003274,0.1830,-0.3660,-0.5490,-0.032761,0.090939,-0.043822,-0.994352
152671.410000,-0.981331,-0.073099,-0.177896,0.055009,-0.992994,0.104580,-0.184294,0.092841,0.978476,0.0946,0.1854,3.0856,0.077630,0.995110,-0.173820,-0.118000,-1.002046,-0.091998,-0.000443,0.000956,0.019974,0.092841,0.978476,-0.184294,0.000937,0.019723,-0.003194,0.1220,-0.3660,-0.4270,-0.032218,0.091086,-0.049649,-0.994083
152671.485000,-0.981502,-0.070035,-0.178185,0.053395,-0.993897,0.096530,-0.183858,0.085230,0.979251,0.0868,0.1849,3.0872,0.077140,0.994140,-0.173820,-0.114366,-1.000733,-0.099665,-0.000213,-0.006444,0.018976,0.085230,0.979251,-0.183858,0.008036,0.017998,-0.003624,-0.1220,-0.2440,-0.2440,-0.031034,0.091028,-0.045700,-0.994315
152671.561000,-0.981412,-0.072066,-0.177867,0.053413,-0.992767,0.107521,-0.184329,0.096022,0.978163,0.0979,0.1854,3.0872,0.077140,0.994140,-0.173820,-0.116433,-1.001518,-0.088784,-0.000103,0.004619,0.018986,0.096022,0.978163,-0.184329,-0.002755,0.019086,-0.003152,-0.1830,-0.2440,-0.2440,-0.031558,0.091093,-0.051192,-0.994025
152671.636000,-0.981413,-0.070491,-0.178493,0.053346,-0.993646,0.099103,-0.184345,0.087739,0.978938,0.0894,0.1854,3.0873,0.077630,0.994140,-0.174310,-0.115152,-1.000957,-0.097725,-0.000136,-0.004376,0.019116,0.087739,0.978938,-0.184345,0.006035,0.018304,-0.003624,-0.2440,-0.2440,-0.1830,-0.031139,0.091236,-0.046981,-0.994233
152671.711000,-0.981349,-0.074052,-0.177399,0.054979,-0.992396,0.110121,-0.184205,0.098314,0.977959,0.1002,0.1853,3.0856,0.077140,0.994620,-0.173820,-0.118519,-1.001958,-0.086413,0.000085,0.006996,0.019439,0.098314,0.977959,-0.184205,-0.005038,0.019766,-0.003279,-0.3050,-0.1830,-0.1220,-0.032454,0.090952,-0.052426,-0.993945
152671.786000,-0.981396,-0.074503,-0.176947,0.056659,-0.992979,0.103843,-0.183442,0.091885,0.978727,0.0936,0.1845,3.0839,0.078120,0.994140,-0.173330,-0.120063,-1.000733,-0.092627,0.000038,-0.000618,0.018971,0.091885,0.978727,-0.183442,0.002354,0.018496,-0.003553,-0.2440,-0.1830,-0.1830,-0.032985,0.090630,-0.049221,-0.994120
152671.861000,-0.981365,-0.073263,-0.177638,0.055992,-0.993374,0.100364,-0.183814,0.088547,0.978965,0.0902,0.1849,3.0846,0.077140,0.994140,-0.173330,-0.117746,-1.000630,-0.095835,-0.000471,-0.003018,0.018897,0.088547,0.978965,-0.183814,0.004706,0.018281,-0.003180,0.0610,-0.2440,-0.3660,-0.032502,0.090890,-0.047504,-0.994196
152671.936000,-0.980925,-0.075017,-0.179326,0.056715,-0.992843,0.105098,-0.185927,0.092923,0.978160,0.0947,0.1870,3.0838,0.076170,0.994140,-0.174800,-0.117949,-1.001076,-0.092766,-0.000902,0.002466,0.019115,0.092923,0.978160,-0.185927,-0.000604,0.019118,-0.002529,0.2440,-0.3050,-0.6100,-0.033133,0.091867,-0.049805,-0.993973
152672.011000,-0.981056,-0.073293,-0.179322,0.056119,-0.993499,0.099043,-0.185415,0.087103,0.978792,0.0888,0.1865,3.0845,0.076660,0.994140,-0.175290,-0.116638,-1.000737,-0.099194,-0.000271,-0.004052,0.019239,0.087103,0.978792,-0.185415,0.005721,0.018479,-0.003529,0.0000,-0.1830,-0.3660,-0.032543,0.091721,-0.046810,-0.994151
152672.086000,-0.981364,-0.073157,-0.177689,0.055144,-0.993018,0.104283,-0.184077,0.092541,0.978546,0.0943,0.1851,3.0855,0.077140,0.994620,-0.174310,-0.117492,-1.001599,-0.092727,0.000359,0.001042,0.019557,0.092541,0.978546,-0.184077,0.000749,0.019183,-0.003895,-0.3050,-0.0610,0.0000,-0.032265,0.090978,-0.049498,-0.994099
152672.161000,-0.981442,-0.072659,-0.177463,0.055038,-0.993232,0.102274,-0.183693,0.090609,0.978799,0.0923,0.1847,3.0856,0.077140,0.994620,-0.173820,-0.117130,-1.001421,-0.094183,0.000169,-0.000922,0.019463,0.090609,0.978799,-0.183693,0.002667,0.018926,-0.003792,-0.3660,-0.0610,0.0610,-0.032112,0.090819,-0.048504,-0.994167
152672.236000,-0.981323,-0.071337,-0.178652,0.054152,-0.993584,0.099293,-0.184589,0.087764,0.978889,0.0894,0.1857,3.0865,0.076170,0.993650,-0.174310,-0.114490,-1.000457,-0.097484,-0.000207,-0.002908,0.018542,0.087764,0.978889,-0.184589,0.004531,0.017899,-0.003377,-0.2440,-0.1830,-0.1220,-0.031555,0.091339,-0.047037,-0.994208
152672.311000,-0.981486,-0.072480,-0.177290,0.054011,-0.992804,0.106875,-0.183760,0.095320,0.978338,0.0971,0.1848,3.0866,0.078120,0.994620,-0.173820,-0.117947,-1.001821,-0.089602,0.000299,0.002919,0.019528,0.095320,0.978338,-0.183760,-0.001059,0.019364,-0.003725,-0.3660,-0.1830,0.0000,-0.031812,0.090802,-0.050851,-0.994061
152672.386000,-0.981620,-0.071553,-0.176927,0.054134,-0.993372,0.101397,-0.183010,0.089955,0.978987,0.0916,0.1840,3.0865,0.078120,0.994140,-0.172850,-0.117236,-1.000848,-0.094087,-0.000089,-0.002584,0.018875,0.089955,0.978987,-0.183010,0.004271,0.018233,-0.003507,-0.1220,-0.1830,-0.2440,-0.031604,0.090506,-0.048116,-0.994231
152672.461000,-0.981059,-0.073744,-0.179122,0.055285,-0.992834,0.105948,-0.185651,0.094039,0.978105,0.0958,0.1867,3.0853,0.076660,0.994140,-0.174310,-0.117297,-1.001245,-0.091238,-0.001067,0.003134,0.019052,0.094039,0.978105,-0.185651,-0.001241,0.019158,-0.002317,0.3050,-0.2440,-0.6710,-0.032453,0.091746,-0.050299,-0.993982
152672.536000,-0.980890,-0.070631,-0.181289,0.053977,-0.993993,0.095211,-0.186925,0.083606,0.978810,0.0852,0.1880,3.0866,0.076170,0.994140,-0.176260,-0.112977,-1.000838,-0.103647,-0.001042,-0.007101,0.019377,0.083606,0.978810,-0.186925,0.008752,0.018479,-0.002984,0.3660,-0.0610,-0.9760,-0.031334,0.092591,-0.044965,-0.994195
152672.612000,-0.981198,-0.071576,-0.179243,0.053261,-0.993046,0.104986,-0.185511,0.093465,0.978187,0.0953,0.1866,3.0874,0.075680,0.994140,-0.175290,-0.113994,-1.001599,-0.092589,0.000059,0.003438,0.019174,0.093465,0.978187,-0.185511,-0.001626,0.019106,-0.003432,0.0000,0.0610,-0.6100,-0.031396,0.091736,-0.049910,-0.994036
152672.687000,-0.981056,-0.070413,-0.180475,0.053208,-0.993717,0.098463,-0.186274,0.086995,0.978639,0.0887,0.1874,3.0874,0.075680,0.994620,-0.176260,-0.112470,-1.001699,-0.100065,-0.000229,-0.003158,0.019831,0.086995,0.978639,-0.186274,0.004879,0.019137,-0.003638,-0.2440,-0.0610,-0.1830,-0.031087,0.092226,-0.046637,-0.994159
152672.762000,-0.981089,-0.073813,-0.178931,0.054989,-0.992632,0.107976,-0.185582,0.096095,0.977919,0.0980,0.1867,3.0856,0.075190,0.994620,-0.175290,-0.115820,-1.002084,-0.089795,0.000096,0.006664,0.019591,0.096095,0.977919,-0.185582,-0.004740,0.019861,-0.003364,-0.2440,-0.1220,-0.1830,-0.032397,0.091684,-0.051329,-0.993937
152672.837000,-0.980985,-0.072779,-0.179919,0.055766,-0.993634,0.097882,-0.185897,0.085987,0.978800,0.0876,0.1870,3.0848,0.075190,0.994140,-0.175780,-0.114487,-1.000824,-0.100548,-0.000254,-0.003723,0.019235,0.085987,0.978800,-0.185897,0.005372,0.018508,-0.003534,-0.1830,-0.1830,-0.2440,-0.032325,0.091991,-0.046237,-0.994160
152672.912000,-0.981307,-0.074015,-0.177644,0.055869,-0.992895,0.105067,-0.184158,0.093178,0.978470,0.0949,0.1852,3.0847,0.076170,0.995600,-0.174310,-0.117471,-1.002584,-0.091816,0.000213,0.002754,0.020440,0.093178,0.978470,-0.184158,-0.000846,0.020252,-0.003820,-0.2440,-0.1830,-0.2440,-0.032665,0.090991,-0.049857,-0.994066
152672.987000,-0.982424,-0.072664,-0.171938,0.053883,-0.992304,0.111488,-0.178716,0.100264,0.978779,0.1021,0.1797,3.0868,0.086420,0.995110,-0.169430,-0.128078,-1.001684,-0.081505,0.000868,-0.000317,0.019795,0.100264,0.978779,-0.178716,0.002236,0.019190,-0.004408,-0.3660,0.0610,-0.3050,-0.031822,0.088177,-0.053248,-0.994171
152673.062000,-0.979865,-0.072087,-0.186196,0.056836,-0.994673,0.085992,-0.191403,0.073678,0.978742,0.0751,0.1926,3.0837,0.065420,0.993160,-0.179680,-0.102241,-0.999603,-0.115208,-0.002035,-0.006473,0.018412,0.073678,0.978742,-0.191403,0.007942,0.017843,-0.001898,-0.2440,0.0610,-0.4270,-0.032421,0.094956,-0.040153,-0.994143
152673.137000,-0.981096,-0.076394,-0.177803,0.057027,-0.992115,0.111602,-0.184927,0.099353,0.977717,0.1013,0.1860,3.0835,0.074700,0.994620,-0.174800,-0.118191,-1.002026,-0.085901,0.000546,0.010475,0.019431,0.099353,0.977717,-0.184927,-0.008504,0.020070,-0.003531,-0.0610,-0.2440,-0.3660,-0.033562,0.091244,-0.053065,-0.993847
152673.212000,-0.980968,-0.073067,-0.179895,0.057399,-0.994212,0.090817,-0.185490,0.078763,0.979485,0.0802,0.1866,3.0831,0.073730,0.994140,-0.175290,-0.113432,-1.000073,-0.107069,-0.000636,-0.009627,0.019002,0.078763,0.979485,-0.185490,0.011114,0.017852,-0.003453,-0.0610,-0.3050,-0.3660,-0.032803,0.091868,-0.042637,-0.994317
152673.287000,-0.980851,-0.075258,-0.179631,0.056679,-0.992705,0.106416,-0.186329,0.094197,0.977961,0.0960,0.1874,3.0839,0.074700,0.994620,-0.175780,-0.116547,-1.001836,-0.092134,-0.000268,0.005232,0.019662,0.094197,0.977961,-0.186329,-0.003322,0.019833,-0.003104,-0.0610,-0.3050,-0.3660,-0.033186,0.092050,-0.050460,-0.993921
152673.362000,-0.980908,-0.074952,-0.179450,0.057582,-0.993307,0.100127,-0.185754,0.087882,0.978658,0.0896,0.1868,3.0830,0.075190,0.994140,-0.175780,-0.116724,-1.000757,-0.098628,-0.000000,-0.001798,0.019240,0.087882,0.978658,-0.185754,0.003477,0.018649,-0.003677,-0.2440,-0.1830,-0.2440,-0.033330,0.091844,-0.047282,-0.994092
152673.437000,-0.980845,-0.076925,-0.178957,0.058893,-0.992834,0.103982,-0.185673,0.091451,0.978347,0.0932,0.1868,3.0816,0.073730,0.994140,-0.175290,-0.117422,-1.000901,-0.094269,-0.000071,0.003344,0.019042,0.091451,0.978347,-0.185673,-0.001574,0.018990,-0.003269,-0.1830,-0.1830,-0.1830,-0.034160,0.091709,-0.049154,-0.993985
152673.512000,-0.980862,-0.073925,-0.180126,0.057669,-0.993912,0.093878,-0.185969,0.081694,0.979153,0.0832,0.1871,3.0829,0.074210,0.994140,-0.175780,-0.114619,-1.000310,-0.104701,-0.000521,-0.007120,0.019150,0.081694,0.979153,-0.185969,0.008680,0.018176,-0.003461,0.0000,-0.3660,-0.4880,-0.033089,0.092056,-0.044148,-0.994224
152673.588000,-0.981087,-0.073568,-0.179040,0.056073,-0.993316,0.100893,-0.185266,0.088945,0.978655,0.0906,0.1863,3.0845,0.074210,0.994620,-0.175290,-0.114595,-1.001496,-0.096830,0.000078,0.000311,0.019547,0.088945,0.978655,-0.185266,0.001424,0.019147,-0.003680,-0.1830,-0.2440,-0.1830,-0.032602,0.091616,-0.047740,-0.994115
152673.663000,-0.981182,-0.073111,-0.178709,0.055805,-0.993419,0.100021,-0.184846,0.088166,0.978805,0.0898,0.1859,3.0848,0.074700,0.994140,-0.174800,-0.114739,-1.000913,-0.097254,0.000039,-0.001006,0.019017,0.088166,0.978805,-0.184846,0.002673,0.018506,-0.003610,-0.2440,-0.1830,-0.0610,-0.032419,0.091423,-0.047323,-0.994159
152673.738000,-0.980902,-0.075192,-0.179382,0.057030,-0.992905,0.104341,-0.185955,0.092118,0.978230,0.0939,0.1870,3.0835,0.074700,0.993650,-0.175290,-0.116544,-1.000630,-0.093832,-0.000313,0.003036,0.018631,0.092118,0.978230,-0.185955,-0.001275,0.018599,-0.002985,-0.1220,-0.3050,-0.3050,-0.033255,0.091887,-0.049412,-0.993987
152673.813000,-0.981015,-0.074100,-0.179216,0.057226,-0.993583,0.097565,-0.185296,0.085457,0.978960,0.0871,0.1864,3.0833,0.074210,0.994620,-0.175290,-0.115088,-1.001092,-0.100355,-0.000160,-0.003251,0.019541,0.085457,0.978960,-0.185296,0.004912,0.018842,-0.003650,-0.1220,-0.3050,-0.3660,-0.033024,0.091662,-0.046023,-0.994178
152673.888000,-0.980986,-0.074807,-0.179084,0.057107,-0.993140,0.102034,-0.185489,0.089867,0.978528,0.0916,0.1866,3.0834,0.074210,0.994620,-0.175290,-0.115812,-1.001445,-0.095908,-0.000098,0.001270,0.019546,0.089867,0.978528,-0.185489,0.000502,0.019273,-0.003457,-0.1830,-0.2440,-0.1830,-0.033175,0.091687,-0.048262,-0.994064
152673.963000,-0.980967,-0.075398,-0.178941,0.057831,-0.993159,0.101443,-0.185365,0.089164,0.978616,0.0909,0.1864,3.0827,0.074210,0.994620,-0.175290,-0.116423,-1.001306,-0.096613,-0.000012,0.000542,0.019547,0.089164,0.978616,-0.185365,0.001205,0.019186,-0.003581,-0.2440,-0.1830,-0.1220,-0.033506,0.091619,-0.047936,-0.994075
152674.038000,-0.981069,-0.076865,-0.177749,0.058862,-0.992788,0.104435,-0.184494,0.091995,0.978519,0.0937,0.1856,3.0817,0.075190,0.994620,-0.174310,-0.119235,-1.001225,-0.092938,0.000040,0.002468,0.019420,0.091995,0.978519,-0.184494,-0.000667,0.019254,-0.003477,-0.1830,-0.1830,-0.3050,-0.034136,0.091105,-0.049402,-0.994029
152674.113000,-0.980584,-0.078138,-0.179862,0.060831,-0.993145,0.099815,-0.186428,0.086935,0.978615,0.0886,0.1875,3.0796,0.071770,0.993160,-0.175780,-0.116364,-0.999531,-0.099060,-0.000340,0.000636,0.018060,0.086935,0.978615,-0.186428,0.000965,0.017798,-0.002995,-0.3050,-0.1220,-0.1830,-0.034951,0.092123,-0.046968,-0.994025
152674.188000,-0.981075,-0.080086,-0.176289,0.061285,-0.992081,0.109633,-0.183673,0.096754,0.978214,0.0986,0.1847,3.0792,0.077630,0.994140,-0.173820,-0.125136,-1.000566,-0.088105,0.000623,0.004823,0.019019,0.096754,0.978214,-0.183673,-0.002994,0.019024,-0.003809,-0.3660,-0.1830,0.0000,-0.035560,0.090542,-0.051913,-0.993903
152674.263000,-0.981010,-0.075974,-0.178457,0.060158,-0.993900,0.092431,-0.184390,0.079940,0.979597,0.0814,0.1855,3.0803,0.075190,0.994140,-0.174310,-0.118184,-0.999664,-0.105146,-0.000513,-0.009889,0.018908,0.079940,0.979597,-0.184390,0.011379,0.017700,-0.003578,-0.1830,-0.1830,-0.1830,-0.034228,0.091232,-0.043340,-0.994297
152674.338000,-0.981097,-0.079130,-0.176597,0.059653,-0.991802,0.113003,-0.184091,0.100332,0.977775,0.1023,0.1851,3.0809,0.078120,0.995110,-0.173820,-0.124690,-1.001934,-0.084497,0.000207,0.008115,0.019977,0.100332,0.977775,-0.184091,-0.006061,0.020413,-0.003397,-0.3050,-0.1220,-0.1830,-0.034912,0.090733,-0.053666,-0.993815
152674.413000,-0.981005,-0.076032,-0.178463,0.060598,-0.994060,0.090405,-0.184277,0.077874,0.979785,0.0793,0.1853,3.0799,0.071770,0.993650,-0.174310,-0.114848,-0.999157,-0.106633,-0.000195,-0.008613,0.018215,0.077874,0.979785,-0.184277,0.009996,0.017103,-0.003687,-0.3660,-0.0610,-0.1220,-0.034352,0.091201,-0.042309,-0.994340
152674.488000,-0.979685,-0.079363,-0.184171,0.060016,-0.992300,0.108349,-0.191352,0.095095,0.976904,0.0970,0.1925,3.0804,0.075680,1.011710,-0.183590,-0.120623,-1.019269,-0.097623,-0.000918,0.006415,0.037879,0.095095,0.976904,-0.191352,-0.002691,0.037868,-0.005964,-0.1830,-0.1830,-0.3050,-0.035070,0.094486,-0.051189,-0.993591
152674.564000,-0.985460,-0.074513,-0.152700,0.059439,-0.993108,0.101008,-0.159174,0.090463,0.983097,0.0918,0.1599,3.0813,0.079100,0.960930,-0.149900,-0.126662,-0.964747,-0.073028,0.006870,-0.005631,-0.017674,0.090463,0.983097,-0.159174,0.003482,-0.018993,-0.004292,-1.4030,-0.3660,-1.2810,-0.033650,0.078345,-0.048099,-0.995197
152674.639000,-0.979176,-0.074504,-0.188850,0.057111,-0.993748,0.095932,-0.194817,0.083149,0.977309,0.0849,0.1961,3.0833,0.071280,1.011710,-0.184570,-0.110316,-1.019020,-0.110146,-0.004056,-0.001420,0.037797,0.083149,0.977309,-0.194817,0.004856,0.037569,-0.003473,1.0370,1.7080,-0.0610,-0.033110,0.096519,-0.045051,-0.993760
152674.714000,-0.981007,-0.072826,-0.179782,0.055678,-0.993562,0.098661,-0.185809,0.086777,0.978746,0.0884,0.1869,3.0849,0.070310,0.994140,-0.177240,-0.109510,-1.001312,-0.100269,0.001638,0.001845,0.019202,0.086777,0.978746,-0.185809,-0.000286,0.018682,-0.005072,-0.1220,1.4030,-0.6100,-0.032315,0.091936,-0.046632,-0.994147
152674.789000,-0.981441,-0.072904,-0.177363,0.055464,-0.993301,0.101376,-0.183566,0.089657,0.978910,0.0913,0.1846,3.0851,0.074210,0.994620,-0.173820,-0.114515,-1.001462,-0.094602,0.000447,0.001029,0.019262,0.089657,0.978910,-0.183566,0.000672,0.018880,-0.003918,-0.2440,0.0000,-0.1830,-0.032280,0.090759,-0.048037,-0.994190
152674.864000,-0.981397,-0.071757,-0.178073,0.055113,-0.993785,0.096719,-0.183907,0.085106,0.979252,0.0867,0.1850,3.0855,0.073730,0.995110,-0.173820,-0.112812,-1.001673,-0.099083,-0.000217,-0.003076,0.019702,0.085106,0.979252,-0.183907,0.004750,0.019035,-0.003580,-0.1830,-0.2440,-0.1830,-0.031900,0.091015,-0.045717,-0.994288
152674.939000,-0.981659,-0.069427,-0.177554,0.052546,-0.993791,0.098074,-0.183261,0.086945,0.979212,0.0886,0.1843,3.0881,0.076170,0.995110,-0.173330,-0.113085,-1.001928,-0.097165,-0.000078,-0.003649,0.019772,0.086945,0.979212,-0.183261,0.005351,0.019017,-0.003739,-0.1220,-0.1830,-0.3050,-0.030668,0.090719,-0.046519,-0.994317
152675.014000,-0.981403,-0.066775,-0.179967,0.050511,-0.994338,0.093494,-0.185191,0.082665,0.979219,0.0842,0.1863,3.0902,0.072750,0.994140,-0.174800,-0.106323,-1.001179,-0.102460,-0.000476,-0.004647,0.018877,0.082665,0.979219,-0.185191,0.006213,0.018136,-0.003263,-0.1220,0.1830,-0.3050,-0.029488,0.091808,-0.044290,-0.994354
152675.089000,-0.981807,-0.069311,-0.176781,0.050878,-0.992983,0.106755,-0.182940,0.095819,0.978444,0.0976,0.1840,3.0898,0.075680,0.995110,-0.172850,-0.112718,-1.002729,-0.087619,0.000297,0.005931,0.019635,0.095819,0.978444,-0.182940,-0.004028,0.019792,-0.003582,-0.1830,-0.2440,-0.1220,-0.030224,0.090461,-0.050942,-0.994137
152675.164000,-0.981548,-0.066354,-0.179336,0.050421,-0.994483,0.091990,-0.184451,0.081250,0.979478,0.0828,0.1855,3.0903,0.072750,0.995110,-0.174310,-0.106177,-1.001986,-0.103299,-0.000427,-0.006036,0.019719,0.081250,0.979478,-0.184451,0.007633,0.018835,-0.003523,-0.1220,0.3660,-0.4270,-0.029357,0.091457,-0.043553,-0.994423
152675.239000,-0.981555,-0.068795,-0.178374,0.050628,-0.993238,0.104472,-0.184355,0.093514,0.978401,0.0953,0.1854,3.0901,0.073240,0.993650,-0.173820,-0.109242,-1.001383,-0.090647,0.000061,0.005921,0.018236,0.093514,0.978401,-0.184355,-0.004180,0.018450,-0.003122,-0.2440,0.0610,-0.1830,-0.030032,0.091218,-0.049789,-0.994132
152675.314000,-0.982187,-0.067979,-0.175180,0.050126,-0.993272,0.104398,-0.181099,0.093757,0.978986,0.0955,0.1821,3.0906,0.080560,0.994140,-0.171380,-0.116683,-1.001305,-0.089160,0.000507,-0.001165,0.018773,0.093757,0.978986,-0.181099,0.002883,0.018168,-0.003956,-0.2440,-0.2440,-0.1220,-0.029696,0.089581,-0.049823,-0.994289
152675.389000,-0.981467,-0.063895,-0.180665,0.048895,-0.995069,0.086298,-0.185288,0.075865,0.979751,0.0773,0.1864,3.0918,0.070310,0.994620,-0.174800,-0.100978,-1.001362,-0.108831,-0.000841,-0.009105,0.019156,0.075865,0.979751,-0.185288,0.010567,0.018134,-0.003169,-0.1220,0.0610,-0.3050,-0.028353,0.091992,-0.040764,-0.994521
152675.464000,-0.981896,-0.065590,-0.177704,0.047376,-0.993357,0.104868,-0.183402,0.094551,0.978480,0.0963,0.1844,3.0934,0.075190,0.995110,-0.173330,-0.108296,-1.003114,-0.089302,0.000231,0.005121,0.019698,0.094551,0.978480,-0.183402,-0.003240,0.019770,-0.003597,-0.1830,-0.1830,-0.1830,-0.028406,0.090803,-0.050146,-0.994200
152675.539000,-0.981691,-0.065944,-0.178702,0.049040,-0.994035,0.097416,-0.184060,0.086869,0.979069,0.0885,0.1851,3.0917,0.073730,0.995110,-0.173820,-0.106940,-1.002491,-0.097308,-0.000268,-0.001265,0.019706,0.086869,0.979069,-0.184060,0.002987,0.019218,-0.003426,-0.1830,-0.2440,-0.2440,-0.028910,0.091207,-0.046334,-0.994333
152675.615000,-0.981710,-0.067976,-0.177835,0.050105,-0.993405,0.103126,-0.183673,0.092330,0.978642,0.0941,0.1847,3.0906,0.074210,0.994620,-0.173330,-0.109639,-1.002218,-0.091425,-0.000006,0.003809,0.019161,0.092330,0.978642,-0.183673,-0.002014,0.019145,-0.003323,-0.1830,-0.1830,-0.1830,-0.029692,0.090904,-0.049149,-0.994203
152675.690000,-0.981659,-0.068568,-0.177888,0.051393,-0.993717,0.099428,-0.183588,0.088462,0.979015,0.0901,0.1846,3.0893,0.074210,0.994620,-0.173330,-0.110215,-1.001791,-0.095330,-0.000121,-0.000150,0.019168,0.088462,0.979015,-0.183588,0.001853,0.018772,-0.003407,-0.1830,-0.2440,-0.2440,-0.030163,0.090889,-0.047243,-0.994282
152675.765000,-0.981516,-0.071057,-0.177697,0.052937,-0.993093,0.104713,-0.183911,0.093371,0.978498,0.0951,0.1850,3.0877,0.074700,0.994140,-0.173330,-0.113159,-1.001469,-0.090518,-0.000133,0.004360,0.018724,0.093371,0.978498,-0.183911,-0.002572,0.018802,-0.003082,-0.1830,-0.1830,-0.2440,-0.031182,0.090937,-0.049814,-0.994121
152675.840000,-0.981807,-0.072108,-0.175654,0.053942,-0.992892,0.106092,-0.182056,0.094686,0.978719,0.0964,0.1831,3.0867,0.078610,0.994140,-0.171870,-0.118676,-1.001067,-0.088392,0.000175,0.001767,0.018724,0.094686,0.978719,-0.182056,0.000006,0.018483,-0.003486,-0.1830,-0.1830,-0.2440,-0.031698,0.089953,-0.050489,-0.994160
152675.915000,-0.980892,-0.073077,-0.180308,0.056341,-0.993760,0.096261,-0.186217,0.084263,0.978889,0.0859,0.1873,3.0842,0.070310,0.994140,-0.175290,-0.110009,-1.000849,-0.100913,-0.000827,-0.000531,0.018824,0.084263,0.978889,-0.186217,0.002174,0.018525,-0.002724,-0.1220,0.0000,-0.2440,-0.032544,0.092168,-0.045395,-0.994176
152675.990000,-0.982397,-0.072135,-0.172317,0.053734,-0.992570,0.109165,-0.178911,0.097984,0.978974,0.0998,0.1799,3.0870,0.082030,0.996090,-0.169920,-0.123159,-1.002831,-0.083422,0.001154,0.001807,0.020501,0.097984,0.978974,-0.178911,0.000132,0.020069,-0.004704,-0.1830,0.0610,-0.3050,-0.031650,0.088317,-0.052088,-0.994226
152676.065000,-0.981459,-0.071162,-0.177971,0.054419,-0.993771,0.097254,-0.183783,0.085765,0.979218,0.0874,0.1848,3.0862,0.074210,0.994620,-0.172850,-0.112851,-1.001196,-0.097592,-0.000942,-0.002852,0.019071,0.085765,0.979218,-0.183783,0.004537,0.018565,-0.002735,-0.3050,0.9150,-0.4880,-0.031575,0.090958,-0.046018,-0.994290
152676.140000,-0.981042,-0.072516,-0.179717,0.055289,-0.993542,0.099082,-0.185741,0.087267,0.978716,0.0889,0.1868,3.0853,0.068840,0.994140,-0.175290,-0.108124,-1.001282,-0.097590,-0.000060,0.003973,0.018725,0.087267,0.978716,-0.185741,-0.002309,0.018731,-0.003199,-0.3660,0.9760,-0.4880,-0.032140,0.091903,-0.046862,-0.994145
152676.215000,-0.984275,-0.070717,-0.161871,0.050952,-0.991078,0.123156,-0.169136,0.112971,0.979097,0.1149,0.1700,3.0899,0.094230,0.997550,-0.160640,-0.137289,-1.003633,-0.060525,0.001970,0.005109,0.021181,0.112971,0.979097,-0.169136,-0.002810,0.021049,-0.005261,-0.4270,1.4030,-0.5490,-0.030592,0.083227,-0.059371,-0.994290
152676.290000,-0.986227,-0.058144,-0.154840,0.040034,-0.992253,0.117608,-0.160479,0.109789,0.980914,0.1115,0.1612,3.1010,0.104000,0.993650,-0.152340,-0.136754,-0.999705,-0.057030,0.002649,-0.008272,0.016786,0.109789,0.980914,-0.160479,0.009897,0.015083,-0.005637,-0.7320,5.4320,-0.9760,-0.024670,0.079233,-0.057140,-0.994911
152676.365000,-0.979349,-0.045717,-0.196939,0.034858,-0.997693,0.058259,-0.199148,0.050191,0.978683,0.0512,0.2005,3.1060,0.027830,0.982420,-0.197750,-0.033224,-0.990704,-0.149768,0.010455,0.006139,0.010155,0.050191,0.978683,-0.199148,-0.006093,0.008237,-0.012047,-0.1830,9.5210,-1.0980,-0.020256,0.099575,-0.027264,-0.994450
152676.440000,-0.981837,-0.050204,-0.182962,0.030121,-0.993371,0.110936,-0.187319,0.103410,0.976841,0.1055,0.1884,3.1109,0.074210,1.006340,-0.176750,-0.091045,-1.017042,-0.082492,-0.002223,0.016211,0.031105,0.103410,0.976841,-0.187319,-0.012776,0.032589,-0.003156,0.9150,2.6240,0.0610,-0.020203,0.093130,-0.053910,-0.993988
152676.515000,-0.982936,-0.046421,-0.177995,0.030789,-0.995502,0.089600,-0.181354,0.082591,0.979944,0.0841,0.1824,3.1103,0.077140,0.994140,-0.171870,-0.091381,-1.002693,-0.100306,0.000545,-0.009155,0.018580,0.082591,0.979944,-0.181354,0.010623,0.017291,-0.004187,0.0000,-0.3660,-0.0610,-0.019404,0.090308,-0.043273,-0.994784
152676.591000,-0.982635,-0.051014,-0.178398,0.032236,-0.993777,0.106622,-0.182727,0.099020,0.978164,0.1009,0.1838,3.1088,0.076170,0.995110,-0.171870,-0.094951,-1.004787,-0.083500,-0.000462,0.008769,0.019461,0.099020,0.978164,-0.182727,-0.006764,0.020053,-0.002820,-0.0610,-0.3660,-0.1220,-0.020932,0.090798,-0.051705,-0.994306
152676.666000,-0.982912,-0.048318,-0.177623,0.031968,-0.995079,0.093784,-0.181281,0.086503,0.979620,0.0881,0.1823,3.1091,0.078610,0.995110,-0.171380,-0.094907,-1.003773,-0.096057,0.000026,-0.006536,0.019556,0.086503,0.979620,-0.181281,0.008194,0.018539,-0.003780,-0.1830,-0.3050,-0.0610,-0.020179,0.090205,-0.045313,-0.994687
152676.741000,-0.982825,-0.049703,-0.177722,0.031532,-0.994115,0.103643,-0.181827,0.096259,0.978608,0.0980,0.1828,3.1095,0.078610,0.994620,-0.171380,-0.096237,-1.004050,-0.086266,-0.000136,0.003436,0.019094,0.096259,0.978608,-0.181827,-0.001571,0.019066,-0.003230,-0.1830,-0.1220,-0.2440,-0.020423,0.090391,-0.050256,-0.994428
152676.816000,-0.982547,-0.048786,-0.179501,0.031669,-0.994778,0.097020,-0.183297,0.089642,0.978962,0.0913,0.1843,3.1094,0.078610,0.995110,-0.172850,-0.094759,-1.004194,-0.094419,-0.000527,-0.003308,0.019852,0.089642,0.978962,-0.183297,0.005096,0.019208,-0.003226,-0.0610,-0.3050,-0.2440,-0.020225,0.091199,-0.046923,-0.994521
152676.891000,-0.982942,-0.049688,-0.177075,0.031942,-0.994303,0.101694,-0.181119,0.094304,0.978929,0.0960,0.1821,3.1091,0.077630,0.995600,-0.171380,-0.095428,-1.004877,-0.087941,0.000411,0.002461,0.019981,0.094304,0.978929,-0.181119,-0.000583,0.019737,-0.003944,-0.3050,0.0000,-0.2440,-0.020520,0.090043,-0.049270,-0.994507
152676.966000,-0.982802,-0.050420,-0.177645,0.032881,-0.994411,0.100326,-0.181711,0.092759,0.978967,0.0945,0.1827,3.1081,0.078120,0.995110,-0.171380,-0.096505,-1.004174,-0.089665,-0.000192,0.000379,0.019542,0.092759,0.978967,-0.181711,0.001445,0.019203,-0.003350,-0.1830,-0.2440,-0.2440,-0.020940,0.090335,-0.048538,-0.994507
152677.041000,-0.982656,-0.051623,-0.178107,0.033897,-0.994291,0.101172,-0.182313,0.093380,0.978796,0.0951,0.1833,3.1071,0.077630,0.994620,-0.171870,-0.097017,-1.003699,-0.089501,-0.000208,0.001469,0.019122,0.093380,0.978796,-0.182313,0.000335,0.018903,-0.003232,-0.1830,-0.2440,-0.1830,-0.021499,0.090608,-0.048909,-0.994453
152677.116000,-0.982807,-0.052278,-0.177078,0.034577,-0.994223,0.101610,-0.181367,0.093740,0.978938,0.0955,0.1824,3.1064,0.078610,0.995600,-0.171380,-0.098958,-1.004544,-0.088700,0.000093,0.000914,0.020053,0.093740,0.978938,-0.181367,0.000966,0.019707,-0.003696,-0.1830,-0.1830,-0.1830,-0.021834,0.090109,-0.049109,-0.994481
152677.191000,-0.982741,-0.051634,-0.177633,0.034686,-0.994657,0.097230,-0.181704,0.089390,0.979282,0.0910,0.1827,3.1063,0.077140,0.994620,-0.171380,-0.096722,-1.003294,-0.092936,-0.000175,-0.002123,0.018993,0.089390,0.979282,-0.181704,0.003819,0.018424,-0.003353,-0.1830,-0.2440,-0.1830,-0.021698,0.090325,-0.046910,-0.994570
152677.266000,-0.981880,-0.052351,-0.182128,0.032203,-0.993200,0.111877,-0.186746,0.103985,0.976889,0.1060,0.1878,3.1088,0.087400,0.992180,-0.175780,-0.105744,-1.002285,-0.084868,-0.000667,0.002328,0.018241,0.103985,0.976889,-0.186746,-0.000381,0.018201,-0.002677,-0.2440,-0.1220,-0.1830,-0.021267,0.092777,-0.054292,-0.993978
152677.341000,-0.983761,-0.047122,-0.173186,0.033301,-0.996087,0.081865,-0.176365,0.074768,0.981481,0.0760,0.1773,3.1078,0.068840,0.996090,-0.166990,-0.085740,-1.003570,-0.101563,0.000699,-0.008645,0.019017,0.074768,0.981481,-0.176365,0.010000,0.017836,-0.004330,0.0000,0.7320,-0.5490,-0.020204,0.087813,-0.039349,-0.995154
152677.416000,-0.981672,-0.052193,-0.183293,0.032620,-0.993591,0.108226,-0.187767,0.100263,0.977083,0.1023,0.1889,3.1084,0.078610,1.005850,-0.178710,-0.096912,-1.016180,-0.088525,-0.000984,0.008413,0.031407,0.100263,0.977083,-0.187767,-0.005159,0.031778,-0.004657,0.0000,-0.0610,-0.2440,-0.021331,0.093323,-0.052435,-0.994025
152677.491000,-0.984730,-0.051735,-0.166225,0.035501,-0.994435,0.099190,-0.170431,0.091774,0.981087,0.0933,0.1713,3.1056,0.077140,0.979000,-0.160150,-0.099989,-0.986699,-0.080421,0.003081,-0.000837,0.001678,0.091774,0.981087,-0.170431,0.000827,0.001051,-0.003350,-1.2200,-0.3660,-1.0370,-0.021918,0.084585,-0.047980,-0.995019
152677.567000,-0.982551,-0.051642,-0.178680,0.035046,-0.994877,0.094823,-0.182661,0.086906,0.979327,0.0885,0.1837,3.1059,0.075190,0.995110,-0.170410,-0.094819,-1.003536,-0.094140,-0.002193,-0.002560,0.019148,0.086906,0.979327,-0.182661,0.004324,0.018901,-0.001433,0.1830,-0.1220,-0.1220,-0.021790,0.090828,-0.045680,-0.994580
152677.642000,-0.981642,-0.054865,-0.182670,0.036229,-0.993934,0.103835,-0.187259,0.095311,0.977676,0.0972,0.1884,3.1047,0.076170,1.005850,-0.177730,-0.097491,-1.015444,-0.092158,-0.001446,0.005762,0.031063,0.095311,0.977676,-0.187259,-0.002687,0.031232,-0.004189,0.4880,-0.1830,0.1220,-0.022908,0.093027,-0.050080,-0.994139
152677.717000,-0.983272,-0.054910,-0.173672,0.037524,-0.994091,0.101858,-0.178239,0.093637,0.979522,0.0953,0.1792,3.1034,0.079100,0.989740,-0.167960,-0.102954,-0.998032,-0.085942,0.000947,-0.000122,0.013735,0.093637,0.979522,-0.178239,0.001356,0.013277,-0.003384,0.0610,-0.6710,-0.1220,-0.023234,0.088456,-0.049139,-0.994596
