# FlySight Sensor Fusion Export
# Generated: 2026-01-07T19:41:05.753Z
# Algorithm: fusion
# Source file: SENSOR.CSV
# Frames: 13084
#
# COORDINATE SYSTEMS:
#   Earth Frame (NWU): X=North, Y=West, Z=Up (right-handed)
#   Body Frame: Sensor-fixed frame, orientation depends on mounting
#
# COLUMN DESCRIPTIONS:
#   timestamp: Time since data start
#   r00-r22: Rotation matrix (body-to-earth transform, row-major)
#            To rotate vector v from body to earth: v_earth = R * v_body
#   roll/pitch/yaw: Euler angles (earth frame)
#   accel_body_*: Raw accelerometer reading (body frame)
#   accel_earth_*: Raw accelerometer rotated to earth frame
#   earth_accel_*: Acceleration in earth frame with gravity removed
#   gravity_body_*: Estimated gravity vector in body frame
#   linear_accel_*: Linear acceleration in body frame (gravity removed)
#   gyro_*: Angular velocity (body frame)
#   q*: Orientation quaternion (body-to-earth, scalar-first: w,x,y,z)
#
timestamp,r00,r01,r02,r10,r11,r12,r20,r21,r22,roll,pitch,yaw,accel_body_x,accel_body_y,accel_body_z,accel_earth_x,accel_earth_y,accel_earth_z,earth_accel_x,earth_accel_y,earth_accel_z,gravity_body_x,gravity_body_y,gravity_body_z,linear_accel_x,linear_accel_y,linear_accel_z,gyro_x,gyro_y,gyro_z,qw,qx,qy,qz
s,-,-,-,-,-,-,-,-,-,deg,deg,deg,g,g,g,g,g,g,g,g,g,g,g,g,g,g,g,deg/s,deg/s,deg/s,-,-,-,-
152650.465000,0.159494,0.742797,-0.650242,-0.295080,0.664432,0.686628,0.942067,0.082361,0.325157,14.2138,-70.4016,-61.6083,0.074700,0.247550,0.761230,-0.299190,0.665120,0.338280,-0.005648,-0.015098,-0.210046,0.082361,0.325157,0.942067,-0.031527,-0.074992,-0.194323,10.6810,-17.7000,-44.1890,0.732988,-0.206097,-0.543089,-0.353989
152650.540000,0.244303,0.688773,-0.682575,-0.165184,0.723175,0.670621,0.955526,-0.051084,0.290448,-9.9751,-72.8481,-34.0644,-0.117670,0.214350,0.911130,-0.503023,0.785472,0.141249,-0.032822,-0.106978,-0.071161,-0.051084,0.290448,0.955526,-0.096336,-0.070007,-0.058344,7.5680,-69.8240,-104.1250,0.751320,-0.240146,-0.545075,-0.284152
152650.615000,0.013255,0.315951,-0.948683,-0.195059,0.931356,0.307455,0.980702,0.180974,0.073974,67.7675,-78.7255,-86.1126,0.187980,0.090820,0.918450,-0.840132,0.330300,0.268730,-0.024650,-0.001906,-0.077082,0.180974,0.073974,0.980702,-0.023513,0.017097,-0.075550,-23.5590,-105.9570,-18.1270,0.710385,-0.044511,-0.678993,-0.179836
152650.690000,0.053161,0.102401,-0.993322,-0.635584,0.770693,0.045435,0.770199,0.628924,0.106056,80.4282,-50.3718,-85.2188,0.708490,0.268550,0.758300,-0.688072,-0.208882,0.794998,-0.144937,0.069395,0.033831,0.628924,0.106056,0.770199,0.059918,0.150710,-0.025755,-21.9110,-111.1450,-1.9530,0.694606,0.210007,-0.634720,-0.265613
152650.765000,-0.165122,0.472155,-0.865913,-0.740925,0.520101,0.424883,0.650972,0.711734,0.263951,69.6524,-40.6149,-102.5636,0.893060,0.386230,0.718260,-0.587054,-0.155636,1.045836,-0.021742,0.092161,0.180481,0.711734,0.263951,0.650972,0.166122,0.105622,0.052793,-14.8920,-34.3620,-3.6620,0.636186,0.112723,-0.596086,-0.476700
152650.840000,-0.351411,0.752817,-0.556577,-0.459942,0.378986,0.803008,0.815453,0.538179,0.213073,68.4007,-54.6322,-127.3810,0.512690,0.302240,0.798820,-0.397238,0.520196,0.750940,-0.069546,0.061651,-0.033011,0.538179,0.213073,0.815453,-0.046756,0.081180,-0.030836,-21.7890,63.1100,3.7840,0.556922,-0.118881,-0.615899,-0.544403
152650.915000,-0.230649,0.838692,-0.493353,-0.064424,0.492748,0.867784,0.970902,0.231937,-0.059619,104.4158,-76.1443,-164.3940,0.173330,-0.166990,0.985350,-0.666156,0.761620,0.070809,-0.029264,-0.138615,-0.013574,0.231937,-0.059619,0.970902,-0.095994,-0.105041,0.002501,-33.8740,69.0300,-3.1730,0.548288,-0.289924,-0.667648,-0.411789
152650.990000,-0.202498,0.610299,-0.765852,-0.175090,0.746889,0.641483,0.963503,0.263992,-0.044386,99.5441,-74.4727,-139.1516,0.322260,-0.019040,0.989740,-0.834872,0.564256,0.261541,-0.005360,0.030718,0.018202,0.263992,-0.044386,0.963503,0.024477,0.023002,0.013245,-6.1640,2.9900,-15.2580,0.612374,-0.154110,-0.706005,-0.320633
152651.065000,-0.205394,0.475711,-0.855285,-0.442439,0.734382,0.514715,0.872961,0.484131,0.059635,82.9777,-60.8046,-114.9022,0.641110,0.160150,0.916990,-0.839783,0.305948,0.691883,-0.021072,0.128835,0.094830,0.484131,0.059635,0.872961,0.130501,0.089991,0.030109,3.5400,-27.3430,-30.6390,0.630203,-0.012133,-0.685591,-0.364228
152651.140000,-0.180211,0.729839,-0.659438,-0.396665,0.559562,0.727700,0.900101,0.392716,0.188662,64.3402,-64.1713,-114.4331,0.379880,0.230950,0.823730,-0.443101,0.577974,0.588034,-0.035580,0.042552,-0.088562,0.392716,0.188662,0.900101,-0.036937,0.037719,-0.090182,-0.1220,14.5260,-50.5980,0.626102,-0.133758,-0.622718,-0.449809
152651.215000,-0.132535,0.859307,-0.493990,-0.279136,0.445856,0.850468,0.951061,0.250607,0.180772,54.1957,-72.0009,-115.3985,0.229980,0.180660,0.859860,-0.300000,0.747636,0.419439,-0.026418,0.007071,-0.111806,0.250607,0.180772,0.951061,-0.047568,-0.001147,-0.104807,-23.0100,31.6160,-49.2550,0.611166,-0.245376,-0.591105,-0.465685
152651.290000,-0.170113,0.913964,-0.368417,-0.146432,0.346270,0.926636,0.974484,0.211580,0.074928,70.4991,-77.0291,-139.2784,0.230460,0.062010,0.943840,-0.330256,0.862322,0.308420,0.000913,-0.010515,-0.046468,0.211580,0.074928,0.974484,-0.012639,-0.013562,-0.043898,-37.6580,13.4880,-25.3290,0.559260,-0.319644,-0.600303,-0.474018
152651.365000,-0.149887,0.933021,-0.327117,-0.065772,0.320712,0.944890,0.986513,0.163142,0.013296,85.3407,-80.5793,-156.3077,0.123530,-0.003900,0.839840,-0.296880,0.784181,0.132394,-0.037045,-0.025349,-0.168425,0.163142,0.013296,0.986513,-0.070171,-0.014073,-0.158934,-27.4650,-6.8350,-52.7950,0.544087,-0.359202,-0.603594,-0.458931
152651.441000,-0.202946,0.851364,-0.483727,-0.125335,0.467359,0.875138,0.971135,0.238234,0.011857,87.1507,-76.2003,-148.3014,0.221670,-0.047360,0.806640,-0.475502,0.656004,0.213553,0.024122,-0.050082,-0.183008,0.238234,0.011857,0.971135,-0.046468,-0.057667,-0.176344,18.0050,-30.2730,-81.1760,0.564860,-0.281886,-0.643904,-0.432274
152651.516000,-0.195208,0.845346,-0.497277,-0.364047,0.408353,0.837089,0.910694,0.344439,0.228032,56.4939,-65.6014,-118.2010,0.296870,0.166010,0.698730,-0.265078,0.544615,0.486871,0.016142,0.000311,-0.243141,0.344439,0.228032,0.910694,-0.069975,-0.063211,-0.224692,69.7630,-38.7570,-92.5290,0.600245,-0.205187,-0.586415,-0.503708
152651.591000,-0.096958,0.929265,-0.356462,-0.594470,0.233177,0.769568,0.798251,0.286522,0.529812,28.4045,-52.9634,-99.2634,0.353510,0.587400,0.888670,0.194797,0.610709,0.921320,0.019413,0.005650,0.099228,0.286522,0.529812,0.798251,0.047788,0.050001,0.073968,96.6180,-19.5310,-128.2340,0.645374,-0.187119,-0.447304,-0.590253
152651.666000,0.026419,0.998720,-0.043142,-0.641313,0.050038,0.765646,0.766824,0.007440,0.641814,0.6641,-50.0696,-87.6410,-0.124510,0.376460,0.582510,0.347558,0.544684,0.281187,-0.143511,-0.078287,-0.318301,0.007440,0.641814,0.766824,-0.149613,-0.258039,-0.197666,78.0020,-21.0570,-105.6510,0.655414,-0.289209,-0.308952,-0.625571
152651.741000,0.099355,0.993123,-0.061932,-0.822489,0.116996,0.556618,0.560036,-0.004365,0.828457,-0.3019,-34.0583,-83.1121,-0.003410,0.785150,0.520990,0.747146,0.384656,0.426281,-0.009277,0.021038,-0.065311,-0.004365,0.828457,0.560036,-0.006466,-0.041822,-0.054802,111.6940,-72.3870,-101.8670,0.714984,-0.196152,-0.217476,-0.634844
152651.816000,-0.343204,0.921608,0.181247,-0.867739,-0.384968,0.314369,0.359499,-0.049383,0.931838,-3.0336,-21.0694,-111.5795,0.162100,1.263180,0.482910,1.196049,-0.475133,0.445889,0.221401,-0.071451,0.330044,-0.049383,0.931838,0.359499,0.215252,0.325214,0.104665,105.6510,-103.8810,-107.0550,0.548559,-0.165776,-0.081236,-0.815477
152651.891000,-0.734054,0.630880,0.251306,-0.613793,-0.774704,0.151960,0.290557,-0.042703,0.955904,-2.5579,-16.8913,-140.0987,0.238760,1.157220,0.422850,0.661069,-0.978796,0.424161,0.144899,-0.261699,0.207344,-0.042703,0.955904,0.290557,0.285299,0.194847,0.114510,52.3680,-114.5010,-105.5290,0.334345,-0.145556,-0.029349,-0.930680
152651.966000,-0.914900,0.327475,0.236047,-0.312030,-0.944671,0.101162,0.256115,0.018900,0.966462,1.1203,-14.8396,-161.1678,0.268550,1.183100,0.348140,0.223916,-1.166217,0.427604,0.065332,-0.244032,0.226709,0.018900,0.966462,0.256115,0.256209,0.209840,0.074437,18.1270,-111.7550,-61.6450,0.163471,-0.125807,-0.030690,-0.978012
152652.041000,-0.972473,0.043623,0.228896,-0.028294,-0.997158,0.069828,0.231292,0.061430,0.970943,3.6202,-13.3731,-178.3335,0.127440,1.001460,0.242670,-0.024699,-0.985274,0.326614,0.014124,-0.068774,0.031770,0.061430,0.970943,0.231292,0.071146,0.029277,-0.004442,2.0140,-102.5390,-23.1320,0.018114,-0.115911,-0.033061,-0.992544
152652.116000,-0.974035,-0.111239,0.197184,0.123324,-0.991103,0.050070,0.189860,0.073087,0.979087,4.2691,-10.9446,172.7841,0.051750,0.860350,0.208980,-0.104903,-0.835849,0.277316,-0.025283,0.012964,-0.114852,0.073087,0.979087,0.189860,-0.018430,-0.116786,0.004419,21.3010,-108.9470,-14.3430,-0.059054,-0.097443,-0.031006,-0.993004
152652.191000,-0.947916,-0.302027,0.101170,0.306175,-0.951564,0.027975,0.087820,0.057493,0.994476,3.3087,-5.0382,162.0996,0.104000,0.893060,0.143550,-0.353788,-0.813946,0.203235,-0.064891,-0.039837,-0.093265,0.057493,0.994476,0.087820,0.052145,-0.100430,0.041124,58.8370,-114.0740,-39.0620,-0.154107,-0.047886,-0.021656,-0.986655
152652.266000,-0.890685,-0.454306,0.016909,0.454568,-0.890530,0.018024,0.006870,0.023740,0.999695,1.3604,-0.3936,152.9621,0.147460,1.134270,0.151850,-0.644078,-0.940333,0.179744,-0.173314,-0.058434,0.136437,0.023740,0.999695,0.006870,0.134014,0.132412,0.128743,66.1010,-91.4910,-48.6450,-0.233709,-0.006115,-0.010739,-0.972228
152652.341000,-0.864246,-0.502927,0.011945,0.502532,-0.864177,-0.025674,0.023235,-0.016186,0.999599,-0.9277,-1.3314,149.8234,0.005370,1.212400,0.173820,-0.612313,-1.049493,0.154251,-0.129126,0.034188,0.215485,-0.016186,0.999599,0.023235,0.031909,0.212979,0.133783,15.0750,-52.0010,-28.8080,-0.260372,-0.009110,0.010840,-0.965404
152652.416000,-0.844902,-0.530350,0.069780,0.524018,-0.846812,-0.091185,0.107450,-0.040476,0.993386,-2.3333,-6.1683,148.1923,-0.075190,1.020500,0.145990,-0.467507,-0.916885,0.095639,-0.002686,0.032813,0.034398,-0.040476,0.993386,0.107450,-0.027754,0.030991,0.023160,-41.4420,-33.5690,-9.5820,-0.274623,-0.046162,0.034293,-0.959831
152652.492000,-0.822161,-0.568979,-0.017719,0.565920,-0.813585,-0.133469,0.061525,-0.119761,0.990895,-6.8914,-3.5274,145.4591,-0.278800,1.080560,-0.069820,-0.384360,-1.027587,-0.215746,0.201427,0.023109,0.106852,-0.119761,0.990895,0.061525,-0.146205,0.099226,-0.145953,0.4270,-31.3110,-22.2770,-0.297972,-0.011502,0.066486,-0.952187
152652.567000,-0.767250,-0.634946,-0.090391,0.641347,-0.759312,-0.110087,0.001264,-0.142437,0.989803,-8.1889,-0.0724,140.1076,-0.042960,0.903320,-0.039550,-0.537024,-0.709100,-0.167867,-0.020371,-0.109176,-0.095735,-0.142437,0.989803,0.001264,0.109470,-0.080898,-0.054511,28.6250,-38.6350,-33.8740,-0.340309,0.023765,0.067333,-0.937599
152652.642000,-0.753257,-0.648293,-0.110995,0.654973,-0.754771,-0.036491,-0.060119,-0.100186,0.993151,-5.7603,3.4466,138.9924,-0.045890,1.098140,-0.053220,-0.671442,-0.856959,-0.160115,-0.050411,-0.060832,0.101921,-0.100186,0.993151,-0.060119,0.068384,0.109038,-0.007998,37.1090,-10.8030,12.5730,-0.348254,0.045724,0.036522,-0.935572
152652.717000,-0.752962,-0.652431,-0.085916,0.652691,-0.757072,0.028933,-0.083921,-0.034291,0.995882,-1.9721,4.8140,139.0802,0.034660,1.082030,-0.002440,-0.731838,-0.796623,-0.042443,-0.110948,-0.016046,0.079403,-0.034291,0.995882,-0.083921,0.081811,0.088144,0.066403,24.7190,5.2490,26.6110,-0.348514,0.045353,0.001431,-0.936205
152652.792000,-0.750434,-0.655131,-0.087477,0.651662,-0.755489,0.067626,-0.110391,-0.006257,0.993868,-0.3607,6.3379,139.0296,-0.001950,1.111320,-0.092280,-0.718525,-0.847102,-0.098452,-0.026128,-0.004776,0.119464,-0.006257,0.993868,-0.110391,0.019978,0.120694,0.003308,18.1270,4.5770,14.0380,-0.349265,0.052884,-0.016402,-0.935387
152652.867000,-0.758412,-0.647035,-0.078461,0.641625,-0.762334,0.084638,-0.114577,0.013848,0.993318,0.7987,6.5792,139.7684,0.039550,0.999510,-0.064450,-0.671657,-0.742039,-0.054710,-0.052998,-0.005693,0.005631,0.013848,0.993318,-0.114577,0.038710,0.009270,0.035896,7.4460,3.1730,6.9580,-0.343719,0.051488,-0.026269,-0.937292
152652.942000,-0.767308,-0.635727,-0.084201,0.630991,-0.771887,0.077726,-0.114406,0.006509,0.993413,0.3754,6.5694,140.5681,-0.029290,1.021970,-0.070310,-0.621299,-0.812792,-0.059843,-0.011257,0.038804,0.029258,0.006509,0.993413,-0.114406,-0.022606,0.033029,0.029775,3.6010,1.5250,-2.2580,-0.336978,0.052834,-0.022409,-0.939762
152653.017000,-0.771233,-0.631142,-0.082816,0.625582,-0.775550,0.084673,-0.117669,0.013494,0.992961,0.7786,6.7576,140.9529,0.015620,1.041990,-0.090330,-0.662210,-0.805992,-0.077471,-0.024773,-0.000253,0.050796,0.013494,0.992961,-0.117669,0.016517,0.052469,0.012970,3.9060,0.8540,2.7460,-0.333983,0.053280,-0.026089,-0.940710
152653.092000,-0.775035,-0.626805,-0.080223,0.621414,-0.779036,0.083350,-0.114741,0.014747,0.993286,0.8506,6.5887,141.2778,0.009760,1.017080,-0.079100,-0.638730,-0.792870,-0.064689,-0.024157,0.008891,0.024987,0.014747,0.993286,-0.114741,0.008584,0.027498,0.021381,0.0610,-0.1220,0.0000,-0.331366,0.051757,-0.026042,-0.941722
152653.167000,-0.775871,-0.626178,-0.076977,0.621078,-0.779532,0.081189,-0.110844,0.015183,0.993722,0.8754,6.3640,141.3230,0.014160,0.992670,-0.067870,-0.627350,-0.770534,-0.053941,-0.029951,0.008918,-0.000349,0.015183,0.993722,-0.110844,0.011797,0.002682,0.028815,-0.5490,-0.3050,-0.7320,-0.331028,0.049849,-0.025578,-0.941956
152653.242000,-0.776171,-0.625947,-0.075818,0.620709,-0.779679,0.082584,-0.110807,0.017039,0.993696,0.9823,6.3618,141.3504,0.012690,1.021970,-0.083000,-0.643256,-0.795787,-0.066470,-0.018832,0.003674,0.030360,0.017039,0.993696,-0.110807,0.009440,0.031899,0.013533,0.8540,0.0000,0.6100,-0.330849,0.049528,-0.026439,-0.942012
152653.317000,-0.777507,-0.624429,-0.074638,0.619298,-0.780889,0.081742,-0.109326,0.017332,0.993855,0.9991,6.2765,141.4621,0.010250,1.004390,-0.074700,-0.629564,-0.784076,-0.057953,-0.020776,0.009034,0.012091,0.017332,0.993855,-0.109326,0.006128,0.014306,0.020426,-0.1220,-0.1830,-0.1830,-0.329946,0.048803,-0.026283,-0.942371
152653.392000,-0.778654,-0.623066,-0.074067,0.617899,-0.781958,0.082115,-0.109081,0.018173,0.993867,1.0475,6.2623,141.5664,0.013670,1.013180,-0.079100,-0.636064,-0.790313,-0.061693,-0.019578,0.004564,0.021269,0.018173,0.993867,-0.109081,0.009016,0.022964,0.015744,0.3050,-0.1220,0.1830,-0.329110,0.048572,-0.026597,-0.942666
152653.468000,-0.778433,-0.623397,-0.073602,0.618204,-0.781682,0.082442,-0.108927,0.018675,0.993874,1.0764,6.2535,141.5446,0.013670,1.008780,-0.077140,-0.633834,-0.786454,-0.059318,-0.020266,0.005846,0.016709,0.018675,0.993874,-0.108927,0.008376,0.018580,0.017570,0.1830,-0.1220,0.0610,-0.329302,0.048411,-0.026818,-0.942601
152653.543000,-0.778273,-0.623634,-0.073299,0.618393,-0.781480,0.082940,-0.109006,0.019222,0.993855,1.1080,6.2580,141.5304,0.013180,1.010250,-0.079100,-0.634486,-0.787901,-0.060632,-0.018308,0.005570,0.018391,0.019222,0.993855,-0.109006,0.007418,0.020082,0.015689,0.3050,-0.0610,0.1220,-0.329432,0.048354,-0.027097,-0.942551
152653.618000,-0.778966,-0.622787,-0.073136,0.617500,-0.782142,0.083353,-0.109114,0.019768,0.993833,1.1395,6.2643,141.5955,0.013670,1.010740,-0.080070,-0.634268,-0.788775,-0.061088,-0.017666,0.005084,0.018988,0.019768,0.993833,-0.109114,0.007401,0.020587,0.014829,0.3050,-0.0610,0.1220,-0.328909,0.048331,-0.027347,-0.942727
152653.693000,-0.780506,-0.620859,-0.073109,0.615541,-0.783661,0.083569,-0.109178,0.020224,0.993816,1.1658,6.2679,141.7391,0.014160,1.010250,-0.081050,-0.632349,-0.789751,-0.061663,-0.016964,0.004407,0.018620,0.020224,0.993816,-0.109178,0.007455,0.020114,0.013920,0.2440,-0.1220,0.0610,-0.327738,0.048320,-0.027513,-0.943131
152653.768000,-0.780122,-0.621373,-0.072835,0.616002,-0.783240,0.084125,-0.109320,0.020761,0.993790,1.1968,6.2761,141.7046,0.014640,1.009760,-0.081050,-0.632955,-0.788684,-0.061184,-0.016997,0.004527,0.018138,0.020761,0.993790,-0.109320,0.007392,0.019644,0.014066,0.3050,-0.1220,0.1220,-0.328035,0.048291,-0.027806,-0.943021
152653.843000,-0.779831,-0.621759,-0.072653,0.616337,-0.782921,0.084640,-0.109507,0.021226,0.993759,1.2236,6.2869,141.6790,0.015130,1.010250,-0.082510,-0.633937,-0.788604,-0.062209,-0.016088,0.003746,0.018791,0.021226,0.993759,-0.109507,0.007469,0.020160,0.012797,0.3050,-0.0610,0.0610,-0.328256,0.048296,-0.028068,-0.942936
152653.918000,-0.780233,-0.621274,-0.072496,0.615811,-0.783293,0.085020,-0.109606,0.021692,0.993738,1.2505,6.2926,141.7172,0.015620,1.010740,-0.082510,-0.634152,-0.789102,-0.061781,-0.016220,0.003816,0.019276,0.021692,0.993738,-0.109606,0.007506,0.020656,0.012892,0.2440,-0.0610,0.0610,-0.327953,0.048276,-0.028289,-0.943036
152653.993000,-0.780460,-0.621004,-0.072360,0.615499,-0.783495,0.085423,-0.109742,0.022132,0.993714,1.2759,6.3004,141.7394,0.015620,1.009760,-0.083490,-0.633215,-0.788660,-0.062331,-0.015231,0.003565,0.018426,0.022132,0.993714,-0.109742,0.007073,0.019716,0.012059,0.2440,-0.1220,0.0610,-0.327780,0.048273,-0.028511,-0.943089
152654.068000,-0.782023,-0.619037,-0.072343,0.613501,-0.785036,0.085644,-0.109809,0.022593,0.993696,1.3025,6.3043,141.8856,0.016600,1.010250,-0.083980,-0.632289,-0.790091,-0.062449,-0.015278,0.002885,0.018969,0.022593,0.993696,-0.109809,0.007621,0.020201,0.011635,0.1830,-0.1220,0.0610,-0.326587,0.048265,-0.028680,-0.943498
152654.143000,-0.783546,-0.617108,-0.072338,0.611538,-0.786541,0.085882,-0.109895,0.023055,0.993676,1.3291,6.3093,142.0289,0.017080,1.008780,-0.084470,-0.629799,-0.790256,-0.062555,-0.014873,0.002488,0.017579,0.023055,0.993676,-0.109895,0.007627,0.018757,0.011243,0.1830,-0.1220,0.0610,-0.325419,0.048266,-0.028853,-0.943897
152654.218000,-0.783996,-0.616547,-0.072248,0.610921,-0.786964,0.086384,-0.110117,0.023587,0.993639,1.3598,6.3220,142.0728,0.017080,1.009270,-0.083980,-0.629586,-0.791080,-0.061521,-0.015133,0.003385,0.018005,0.023587,0.993639,-0.110117,0.007091,0.019276,0.011949,0.3050,-0.0610,0.1220,-0.325069,0.048295,-0.029124,-0.944007
152654.293000,-0.783737,-0.616891,-0.072121,0.611185,-0.786676,0.087141,-0.110493,0.024217,0.993582,1.3962,6.3437,142.0517,0.018060,1.010740,-0.086420,-0.631438,-0.791617,-0.063384,-0.013901,0.001921,0.019744,0.024217,0.993582,-0.110493,0.007543,0.020787,0.009887,0.3660,-0.0610,0.1830,-0.325257,0.048365,-0.029493,-0.943927
152654.368000,-0.783986,-0.616581,-0.072065,0.610825,-0.786905,0.087597,-0.110719,0.024656,0.993546,1.4216,6.3567,142.0769,0.018060,1.009760,-0.086910,-0.630494,-0.791167,-0.063452,-0.013359,0.002037,0.018836,0.024656,0.993546,-0.110719,0.007098,0.019855,0.009632,0.2440,-0.1220,0.0610,-0.325059,0.048407,-0.029728,-0.943986
152654.443000,-0.784264,-0.616243,-0.071929,0.610446,-0.787156,0.087987,-0.110840,0.025096,0.993521,1.4470,6.3638,142.1040,0.018550,1.009270,-0.086420,-0.630288,-0.790733,-0.062587,-0.013821,0.002348,0.018297,0.025096,0.993521,-0.110840,0.007128,0.019379,0.010245,0.1830,-0.1220,0.0610,-0.324847,0.048400,-0.029946,-0.944053
152654.519000,-0.783619,-0.617085,-0.071744,0.611231,-0.786482,0.088560,-0.111074,0.025545,0.993484,1.4729,6.3772,142.0454,0.019040,1.009760,-0.087400,-0.631757,-0.790260,-0.063151,-0.013320,0.001900,0.018898,0.025545,0.993484,-0.111074,0.007208,0.019899,0.009500,0.2440,-0.1220,0.0610,-0.325339,0.048422,-0.030222,-0.943873
152654.594000,-0.783767,-0.616911,-0.071630,0.611013,-0.786604,0.088978,-0.111236,0.025971,0.993455,1.4975,6.3866,142.0606,0.019040,1.009270,-0.087890,-0.631257,-0.790083,-0.063221,-0.012772,0.002000,0.018474,0.025971,0.993455,-0.111236,0.006786,0.019446,0.009177,0.1830,-0.1220,0.0610,-0.325224,0.048433,-0.030445,-0.943905
152654.669000,-0.782555,-0.618477,-0.071365,0.612518,-0.785358,0.089640,-0.111487,0.026436,0.993414,1.5243,6.4011,141.9492,0.020500,1.009760,-0.088370,-0.634250,-0.788388,-0.063380,-0.013257,0.001132,0.019021,0.026436,0.993414,-0.111487,0.007812,0.019943,0.008947,0.2440,-0.1220,0.0610,-0.326152,0.048447,-0.030754,-0.943574
152654.744000,-0.781413,-0.619945,-0.071151,0.613924,-0.784185,0.090281,-0.111764,0.026865,0.993372,1.5492,6.4170,141.8447,0.020010,1.009760,-0.089350,-0.635274,-0.787621,-0.063866,-0.012157,0.001446,0.019136,0.026865,0.993372,-0.111764,0.006917,0.020004,0.008249,0.2440,-0.1220,0.0610,-0.327022,0.048479,-0.031048,-0.943262
152654.819000,-0.780603,-0.620983,-0.070988,0.614902,-0.783348,0.090889,-0.112048,0.027298,0.993328,1.5742,6.4334,141.7715,0.020500,1.009760,-0.089840,-0.636669,-0.786554,-0.063973,-0.012044,0.001293,0.019196,0.027298,0.993328,-0.112048,0.006991,0.020041,0.008046,0.2440,-0.1220,0.0610,-0.327634,0.048523,-0.031331,-0.943037
152654.894000,-0.782149,-0.619021,-0.071111,0.612895,-0.784885,0.091192,-0.112263,0.027742,0.993291,1.5998,6.4458,141.9176,0.021480,1.009270,-0.090330,-0.635136,-0.787233,-0.064136,-0.012139,0.000636,0.018778,0.027742,0.993291,-0.112263,0.007536,0.019573,0.007776,0.1830,-0.1830,0.0610,-0.326442,0.048592,-0.031516,-0.943441
152654.969000,-0.782009,-0.619211,-0.070992,0.613032,-0.784718,0.091697,-0.112489,0.028188,0.993253,1.6256,6.4588,141.9064,0.021970,1.009270,-0.090820,-0.635685,-0.786852,-0.064229,-0.011971,0.000442,0.018841,0.028188,0.993253,-0.112489,0.007597,0.019604,0.007513,0.1830,-0.1830,0.0610,-0.326545,0.048622,-0.031770,-0.943395
152655.044000,-0.781904,-0.619356,-0.070884,0.613124,-0.784588,0.092206,-0.112723,0.028636,0.993214,1.6515,6.4723,141.8985,0.022460,1.009270,-0.091300,-0.636188,-0.786508,-0.064311,-0.011817,0.000262,0.018903,0.028636,0.993214,-0.112723,0.007655,0.019636,0.007270,0.1830,-0.1830,0.0610,-0.326620,0.048658,-0.032024,-0.943359
152655.119000,-0.782121,-0.619089,-0.070821,0.612816,-0.784786,0.092565,-0.112886,0.028997,0.993185,1.6723,6.4817,141.9202,0.022460,1.008780,-0.091790,-0.635590,-0.786409,-0.064448,-0.011311,0.000307,0.018480,0.028997,0.993185,-0.112886,0.007298,0.019183,0.006948,0.1220,-0.1220,0.0000,-0.326450,0.048682,-0.032214,-0.943410
152655.194000,-0.782077,-0.619154,-0.070741,0.612826,-0.784717,0.093078,-0.113141,0.029442,0.993143,1.6981,6.4964,141.9182,0.022940,1.008300,-0.092280,-0.635706,-0.785761,-0.064556,-0.011125,0.000103,0.018070,0.029442,0.993143,-0.113141,0.007339,0.018742,0.006719,0.1830,-0.1220,0.0610,-0.326477,0.048729,-0.032468,-0.943390
152655.269000,-0.782420,-0.618712,-0.070814,0.612318,-0.785049,0.093620,-0.113516,0.029890,0.993086,1.7240,6.5180,141.9534,0.023430,1.009270,-0.093750,-0.636141,-0.786757,-0.065594,-0.010406,-0.000549,0.019207,0.029890,0.993086,-0.113516,0.007444,0.019760,0.005625,0.2440,-0.1220,0.0610,-0.326197,0.048843,-0.032728,-0.943472
152655.344000,-0.782793,-0.618239,-0.070817,0.611788,-0.785404,0.094105,-0.113799,0.030339,0.993040,1.7500,6.5344,141.9908,0.023920,1.008780,-0.093750,-0.635753,-0.786488,-0.065214,-0.010618,-0.000440,0.018729,0.030339,0.993040,-0.113799,0.007478,0.019309,0.005911,0.1830,-0.1220,0.0610,-0.325900,0.048915,-0.032972,-0.943562
152655.419000,-0.782655,-0.618422,-0.070751,0.611926,-0.785247,0.094521,-0.114011,0.030683,0.993006,1.7698,6.5466,141.9796,0.023920,1.009270,-0.094230,-0.636209,-0.786796,-0.065330,-0.010245,-0.000292,0.019271,0.030683,0.993006,-0.114011,0.007156,0.019834,0.005642,0.1220,-0.1830,0.0000,-0.326000,0.048955,-0.033175,-0.943518
152655.495000,-0.781528,-0.619870,-0.070539,0.613319,-0.784090,0.095095,-0.114255,0.031056,0.992966,1.7914,6.5606,141.8763,0.024900,1.008780,-0.095210,-0.638056,-0.784757,-0.066056,-0.010034,-0.001249,0.018917,0.031056,0.992966,-0.114255,0.007787,0.019373,0.004914,0.1220,-0.1830,0.0000,-0.326859,0.048980,-0.033437,-0.943210
152655.570000,-0.780796,-0.620809,-0.070381,0.614207,-0.783332,0.095605,-0.114484,0.031420,0.992928,1.8124,6.5739,141.8099,0.024900,1.008780,-0.095210,-0.639001,-0.784018,-0.065692,-0.009990,-0.000800,0.018918,0.031420,0.992928,-0.114484,0.007423,0.019411,0.005143,0.1220,-0.1220,0.0000,-0.327414,0.049009,-0.033675,-0.943008
152655.645000,-0.780067,-0.621742,-0.070232,0.615092,-0.782578,0.096093,-0.114707,0.031760,0.992892,1.8321,6.5867,141.7438,0.024900,1.008780,-0.095210,-0.639938,-0.783282,-0.065350,-0.009955,-0.000373,0.018919,0.031760,0.992892,-0.114707,0.007083,0.019447,0.005366,0.1220,-0.1830,0.0000,-0.327966,0.049039,-0.033902,-0.942806
152655.720000,-0.780109,-0.621692,-0.070206,0.614995,-0.782603,0.096504,-0.114939,0.032107,0.992854,1.8522,6.6001,141.7497,0.025390,1.008780,-0.095700,-0.640239,-0.783095,-0.065546,-0.009857,-0.000646,0.018984,0.032107,0.992854,-0.114939,0.007243,0.019478,0.005110,0.1220,-0.1830,0.0000,-0.327926,0.049094,-0.034103,-0.942810
152655.795000,-0.779578,-0.622369,-0.070102,0.615620,-0.782050,0.097006,-0.115197,0.032468,0.992812,1.8731,6.6150,141.7025,0.025870,1.008300,-0.096670,-0.640926,-0.781993,-0.066218,-0.009364,-0.001213,0.018636,0.032468,0.992812,-0.115197,0.007382,0.019040,0.004406,0.1220,-0.1220,0.0000,-0.328323,0.049142,-0.034337,-0.942661
152655.870000,-0.779275,-0.622757,-0.070034,0.615957,-0.781727,0.097468,-0.115447,0.032816,0.992771,1.8932,6.6294,141.6763,0.025870,1.007810,-0.096670,-0.641010,-0.781320,-0.065885,-0.009307,-0.000809,0.018153,0.032816,0.992771,-0.115447,0.007024,0.018595,0.004659,0.1220,-0.1220,0.0000,-0.328546,0.049195,-0.034556,-0.942573
152655.945000,-0.779008,-0.623097,-0.069972,0.616247,-0.781441,0.097931,-0.115699,0.033169,0.992730,1.9136,6.6440,141.6537,0.026360,1.009270,-0.097160,-0.642609,-0.781956,-0.066027,-0.009333,-0.000944,0.019659,0.033169,0.992730,-0.115699,0.007206,0.020076,0.004414,0.1220,-0.1220,0.0000,-0.328740,0.049250,-0.034775,-0.942494
152656.020000,-0.778604,-0.623619,-0.069816,0.616725,-0.781009,0.098361,-0.115867,0.033527,0.992699,1.9343,6.6536,141.6176,0.026850,1.008300,-0.097160,-0.642917,-0.780489,-0.065756,-0.009474,-0.001007,0.018709,0.033527,0.992699,-0.115867,0.007322,0.019135,0.004588,0.0610,-0.1220,0.0000,-0.329046,0.049259,-0.034988,-0.942379
152656.095000,-0.778094,-0.624268,-0.069706,0.617323,-0.780475,0.098846,-0.116110,0.033881,0.992658,1.9548,6.6677,141.5723,0.027340,1.008300,-0.097160,-0.643950,-0.779680,-0.065459,-0.009753,-0.000947,0.018716,0.033881,0.992658,-0.116110,0.007461,0.019165,0.004831,0.1220,-0.1830,0.0000,-0.329427,0.049302,-0.035216,-0.942235
152656.170000,-0.777679,-0.624795,-0.069618,0.617799,-0.780038,0.099322,-0.116361,0.034231,0.992617,1.9751,6.6821,141.5359,0.027340,1.007810,-0.097650,-0.644138,-0.778939,-0.065612,-0.009324,-0.000850,0.018294,0.034231,0.992617,-0.116361,0.007115,0.018724,0.004597,0.1220,-0.1220,0.0000,-0.329734,0.049351,-0.035440,-0.942117
152656.245000,-0.777177,-0.625425,-0.069569,0.618373,-0.779518,0.099834,-0.116669,0.034569,0.992569,1.9947,6.6999,141.4919,0.027340,1.008780,-0.099600,-0.645235,-0.779399,-0.067177,-0.007957,-0.001538,0.019493,0.034569,0.992569,-0.116669,0.006849,0.019748,0.002959,0.1220,-0.1220,0.0000,-0.330104,0.049428,-0.035670,-0.941975
152656.320000,-0.777077,-0.625549,-0.069572,0.618442,-0.779403,0.100297,-0.116965,0.034912,0.992522,2.0146,6.7170,141.4852,0.027830,1.008780,-0.099600,-0.645738,-0.779025,-0.066892,-0.008284,-0.001457,0.019500,0.034912,0.992522,-0.116965,0.006998,0.019784,0.003255,0.1220,-0.1220,0.0000,-0.330167,0.049509,-0.035886,-0.941940
152656.395000,-0.776718,-0.626008,-0.069448,0.618853,-0.779018,0.100753,-0.117173,0.035279,0.992485,2.0358,6.7290,141.4538,0.028800,1.008300,-0.099600,-0.646656,-0.777696,-0.066654,-0.008790,-0.001827,0.019041,0.035279,0.992485,-0.117173,0.007598,0.019324,0.003466,0.0610,-0.1220,0.0000,-0.330435,0.049536,-0.036108,-0.941836
152656.471000,-0.776391,-0.626421,-0.069386,0.619212,-0.778670,0.101241,-0.117448,0.035638,0.992439,2.0566,6.7448,141.4258,0.028800,1.005850,-0.099120,-0.645568,-0.775427,-0.065906,-0.008959,-0.001253,0.016568,0.035638,0.992439,-0.117448,0.007179,0.016937,0.004234,0.1220,-0.1220,0.0000,-0.330673,0.049598,-0.036337,-0.941740
152656.546000,-0.777082,-0.625539,-0.069602,0.618253,-0.779358,0.101802,-0.117926,0.036076,0.992367,2.0820,6.7724,141.4939,0.029290,1.008780,-0.101070,-0.646757,-0.778381,-0.067359,-0.008119,-0.001993,0.019706,0.036076,0.992367,-0.117926,0.007343,0.019918,0.002753,0.2440,-0.1220,0.0610,-0.330124,0.049773,-0.036595,-0.941914
152656.621000,-0.776743,-0.625954,-0.069649,0.618602,-0.779009,0.102356,-0.118327,0.036419,0.992307,2.1019,6.7956,141.4660,0.029290,1.008300,-0.101560,-0.646827,-0.777751,-0.067523,-0.007817,-0.001809,0.019295,0.036419,0.992307,-0.118327,0.007005,0.019506,0.002669,0.1830,-0.1220,0.0000,-0.330361,0.049897,-0.036837,-0.941815
152656.696000,-0.776433,-0.626341,-0.069633,0.618945,-0.778687,0.102737,-0.118570,0.036670,0.992268,2.1164,6.8096,141.4394,0.029290,1.008780,-0.102050,-0.647476,-0.777879,-0.067742,-0.007519,-0.001721,0.019830,0.036670,0.992268,-0.118570,0.006777,0.020024,0.002422,0.0610,-0.1220,-0.0610,-0.330586,0.049962,-0.037008,-0.941726
152656.771000,-0.776108,-0.626746,-0.069611,0.619306,-0.778348,0.103118,-0.118811,0.036920,0.992230,2.1310,6.8235,141.4114,0.029780,1.007810,-0.102050,-0.647650,-0.776507,-0.067587,-0.007787,-0.001828,0.018882,0.036920,0.992230,-0.118811,0.007001,0.019089,0.002668,0.0610,-0.1830,-0.0610,-0.330822,0.050025,-0.037180,-0.941632
152656.846000,-0.775966,-0.626922,-0.069607,0.619439,-0.778194,0.103480,-0.119042,0.037180,0.992193,2.1460,6.8368,141.4003,0.030270,1.007810,-0.102050,-0.648203,-0.776082,-0.067387,-0.008116,-0.001855,0.018890,0.037180,0.992193,-0.119042,0.007234,0.019116,0.002900,0.0610,-0.1830,-0.0610,-0.330920,0.050088,-0.037347,-0.941588
152656.921000,-0.776053,-0.626818,-0.069578,0.619289,-0.778261,0.103879,-0.119263,0.037526,0.992153,2.1661,6.8496,141.4102,0.030760,1.008300,-0.102050,-0.648792,-0.776272,-0.067080,-0.008417,-0.001782,0.019382,0.037526,0.992153,-0.119263,0.007390,0.019630,0.003117,0.0610,-0.1830,0.0000,-0.330847,0.050138,-0.037544,-0.941603
152656.996000,-0.775568,-0.627420,-0.069559,0.619844,-0.777765,0.104284,-0.119530,0.037764,0.992112,2.1799,6.8650,141.3677,0.030270,1.007810,-0.103510,-0.648597,-0.775871,-0.068253,-0.007034,-0.002001,0.019077,0.037764,0.992112,-0.119530,0.006690,0.019208,0.001935,0.0610,-0.1830,-0.0610,-0.331202,0.050211,-0.037720,-0.941468
152657.071000,-0.775127,-0.627970,-0.069510,0.620348,-0.777308,0.104692,-0.119774,0.038029,0.992073,2.1953,6.8790,141.3291,0.031250,1.006830,-0.103020,-0.649321,-0.774017,-0.067657,-0.007973,-0.002167,0.018066,0.038029,0.992073,-0.119774,0.007378,0.018250,0.002672,0.0610,-0.1830,-0.0610,-0.331526,0.050269,-0.037904,-0.941343
152657.146000,-0.774657,-0.628551,-0.069499,0.620885,-0.776828,0.105077,-0.120035,0.038248,0.992033,2.2079,6.8942,141.2880,0.030270,1.008780,-0.104000,-0.650290,-0.775782,-0.068221,-0.006836,-0.001509,0.020096,0.038248,0.992033,-0.120035,0.006238,0.020252,0.001946,0.0610,-0.1830,-0.0610,-0.331869,0.050343,-0.038069,-0.941212
152657.221000,-0.775532,-0.627449,-0.069694,0.619742,-0.777705,0.105331,-0.120291,0.038495,0.991992,2.2223,6.9089,141.3710,0.031250,1.007810,-0.104000,-0.649337,-0.775367,-0.068130,-0.007424,-0.002009,0.019157,0.038495,0.991992,-0.120291,0.006958,0.019309,0.002208,0.0610,-0.1830,-0.0610,-0.331193,0.050451,-0.038193,-0.941439
152657.296000,-0.775728,-0.627195,-0.069801,0.619442,-0.777898,0.105671,-0.120574,0.038734,0.991948,2.2362,6.9253,141.3916,0.031250,1.007320,-0.104980,-0.648700,-0.775328,-0.068885,-0.006721,-0.002304,0.018800,0.038734,0.991948,-0.120574,0.006736,0.018875,0.001519,0.0610,-0.1830,-0.0610,-0.331029,0.050552,-0.038345,-0.941485
152657.371000,-0.775940,-0.626923,-0.069897,0.619123,-0.778105,0.106010,-0.120847,0.038982,0.991905,2.2506,6.9410,141.4136,0.031730,1.007320,-0.104980,-0.648795,-0.775285,-0.068697,-0.007082,-0.002310,0.018809,0.038982,0.991905,-0.120847,0.006971,0.018907,0.001792,0.0610,-0.1830,-0.0610,-0.330855,0.050647,-0.038499,-0.941535
152657.446000,-0.776557,-0.626148,-0.069987,0.618313,-0.778716,0.106256,-0.121032,0.039239,0.991873,2.2655,6.9517,141.4724,0.032220,1.006830,-0.104980,-0.648098,-0.775268,-0.068519,-0.007335,-0.002421,0.018336,0.039239,0.991873,-0.121032,0.007197,0.018443,0.001980,0.0000,-0.1830,-0.0610,-0.330378,0.050712,-0.038626,-0.941693
152657.522000,-0.776214,-0.626583,-0.069888,0.618708,-0.778351,0.106628,-0.121209,0.039526,0.991840,2.2821,6.9619,141.4422,0.033200,1.007810,-0.104980,-0.649911,-0.775083,-0.068313,-0.007986,-0.002759,0.019319,0.039526,0.991840,-0.121209,0.007915,0.019425,0.002150,0.0000,-0.1830,-0.0610,-0.330633,0.050738,-0.038805,-0.941595
152657.597000,-0.775720,-0.627200,-0.069855,0.619281,-0.777844,0.107005,-0.121450,0.039746,0.991801,2.2949,6.9758,141.3985,0.031730,1.004880,-0.104490,-0.647575,-0.773171,-0.067547,-0.007263,-0.001212,0.016345,0.039746,0.991801,-0.121450,0.006147,0.016588,0.002898,0.0610,-0.1830,-0.0610,-0.330998,0.050800,-0.038969,-0.941457
152657.672000,-0.775277,-0.627728,-0.070024,0.619682,-0.777387,0.108000,-0.122230,0.040337,0.991682,2.3293,7.0208,141.3645,0.033200,1.007810,-0.106930,-0.650882,-0.774433,-0.069446,-0.006820,-0.002685,0.019573,0.040337,0.991682,-0.122230,0.007158,0.019598,0.001231,0.4270,-0.1220,0.1830,-0.331292,0.051060,-0.039396,-0.941322
152657.747000,-0.775092,-0.627941,-0.070160,0.619770,-0.777181,0.108971,-0.122954,0.040980,0.991566,2.3666,7.0626,141.3539,0.035150,1.007810,-0.108390,-0.652485,-0.773278,-0.070498,-0.007117,-0.004163,0.019802,0.040980,0.991566,-0.122954,0.008517,0.019681,0.000502,0.3660,-0.1220,0.1830,-0.331396,0.051292,-0.039827,-0.941254
152657.822000,-0.773303,-0.630169,-0.069926,0.621927,-0.775358,0.109664,-0.123325,0.041315,0.991506,2.3861,7.0840,141.1921,0.034170,1.006830,-0.107910,-0.653351,-0.771237,-0.069610,-0.006877,-0.002651,0.018757,0.041315,0.991506,-0.123325,0.007164,0.018788,0.001356,0.1220,-0.1830,0.0000,-0.332733,0.051355,-0.040121,-0.940767
152657.897000,-0.772588,-0.631053,-0.069852,0.622745,-0.774619,0.110244,-0.123679,0.041673,0.991447,2.4069,7.1045,141.1294,0.035150,1.007320,-0.107910,-0.655291,-0.770296,-0.069356,-0.007590,-0.002851,0.019260,0.041673,0.991447,-0.123679,0.007801,0.019311,0.001707,0.1220,-0.1830,0.0000,-0.333257,0.051440,-0.040379,-0.940566
152657.972000,-0.771931,-0.631867,-0.069762,0.623500,-0.773938,0.110758,-0.123975,0.042001,0.991396,2.4259,7.1216,141.0717,0.034660,1.007320,-0.108880,-0.655652,-0.770052,-0.069932,-0.006581,-0.002629,0.019379,0.042001,0.991396,-0.123975,0.007007,0.019380,0.001039,0.0610,-0.1830,0.0000,-0.333739,0.051505,-0.040611,-0.940381
152658.047000,-0.772120,-0.631625,-0.069860,0.623209,-0.774122,0.111114,-0.124263,0.042256,0.991349,2.4407,7.1382,141.0916,0.035150,1.006830,-0.108880,-0.655473,-0.769601,-0.069762,-0.006919,-0.002670,0.018907,0.042256,0.991349,-0.124263,0.007236,0.018930,0.001329,0.0610,-0.1830,-0.0610,-0.333582,0.051605,-0.040771,-0.940424
152658.122000,-0.770532,-0.633588,-0.069617,0.625109,-0.772498,0.111739,-0.124575,0.042580,0.991296,2.4596,7.1562,140.9487,0.035150,1.006830,-0.109860,-0.657351,-0.768077,-0.070412,-0.006231,-0.002821,0.019038,0.042580,0.991296,-0.124575,0.006938,0.018991,0.000666,0.0610,-0.1830,0.0000,-0.334763,0.051647,-0.041043,-0.939990
152658.197000,-0.768685,-0.635858,-0.069339,0.627319,-0.770615,0.112355,-0.124875,0.042868,0.991246,2.4763,7.1736,140.7823,0.036620,1.006830,-0.109860,-0.660733,-0.765249,-0.070311,-0.007229,-0.003523,0.019069,0.042868,0.991246,-0.124875,0.008129,0.019008,0.000966,0.0610,-0.1830,-0.0610,-0.336135,0.051681,-0.041305,-0.939487
152658.272000,-0.766926,-0.638011,-0.069035,0.629410,-0.768814,0.112994,-0.125167,0.043206,0.991194,2.4960,7.1904,140.6245,0.036130,1.006340,-0.109860,-0.662181,-0.763361,-0.069935,-0.006900,-0.002710,0.018578,0.043206,0.991194,-0.125167,0.007288,0.018584,0.001261,0.0610,-0.1830,0.0000,-0.337437,0.051704,-0.041587,-0.939007
152658.347000,-0.767359,-0.637473,-0.069197,0.628825,-0.769247,0.113307,-0.125460,0.043435,0.991147,2.5092,7.2073,140.6665,0.035640,1.007320,-0.110350,-0.661853,-0.764970,-0.070092,-0.006378,-0.002187,0.019598,0.043435,0.991147,-0.125460,0.006599,0.019618,0.001060,0.0610,-0.1830,-0.0610,-0.337099,0.051819,-0.041726,-0.939116
152658.422000,-0.766652,-0.638329,-0.069141,0.629629,-0.768523,0.113750,-0.125747,0.043673,0.991101,2.5231,7.2239,140.6047,0.036130,1.006340,-0.110350,-0.662446,-0.763200,-0.069961,-0.006692,-0.002276,0.018644,0.043673,0.991101,-0.125747,0.006835,0.018682,0.001353,0.0610,-0.1830,-0.0610,-0.337611,0.051892,-0.041916,-0.938919
152658.498000,-0.767166,-0.637701,-0.069230,0.628959,-0.769029,0.114036,-0.125961,0.043942,0.991062,2.5387,7.2363,140.6535,0.037100,1.006830,-0.110830,-0.662846,-0.763586,-0.070270,-0.006985,-0.002945,0.019213,0.043942,0.991062,-0.125961,0.007564,0.019189,0.001086,0.0000,-0.1830,-0.0610,-0.337219,0.051965,-0.042058,-0.939050
152658.573000,-0.767676,-0.637078,-0.069322,0.628292,-0.769530,0.114333,-0.126184,0.044217,0.991021,2.5547,7.2491,140.7019,0.037590,1.006340,-0.111320,-0.662257,-0.763519,-0.070567,-0.006893,-0.003331,0.018808,0.044217,0.991021,-0.126184,0.007786,0.018736,0.000825,0.0000,-0.1830,-0.0610,-0.336829,0.052042,-0.042204,-0.939179
152658.648000,-0.766931,-0.637988,-0.069196,0.629159,-0.768761,0.114739,-0.126397,0.044462,0.990983,2.5689,7.2615,140.6359,0.037100,1.006830,-0.111320,-0.663096,-0.763443,-0.070240,-0.006630,-0.002563,0.019280,0.044462,0.990983,-0.126397,0.007058,0.019271,0.001035,0.0000,-0.1830,-0.0610,-0.337376,0.052076,-0.042387,-0.938972
152658.723000,-0.766190,-0.638893,-0.069061,0.630019,-0.767995,0.115150,-0.126606,0.044717,0.990945,2.5838,7.2735,140.5704,0.037590,1.005850,-0.111320,-0.663744,-0.761624,-0.070093,-0.006873,-0.002690,0.018328,0.044717,0.990945,-0.126606,0.007277,0.018327,0.001250,0.0000,-0.1830,-0.0610,-0.337920,0.052107,-0.042574,-0.938766
152658.798000,-0.765003,-0.640335,-0.068865,0.631416,-0.766779,0.115600,-0.126827,0.044952,0.990906,2.5974,7.2863,140.4645,0.037590,1.006340,-0.111810,-0.665451,-0.760831,-0.070323,-0.006572,-0.002618,0.018877,0.044952,0.990906,-0.126827,0.007064,0.018855,0.000980,0.0000,-0.2440,-0.0610,-0.338793,0.052132,-0.042771,-0.938441
152658.873000,-0.763930,-0.641634,-0.068682,0.632667,-0.765678,0.116058,-0.127055,0.045208,0.990865,2.6123,7.2995,140.3693,0.038080,1.005850,-0.112300,-0.666765,-0.759098,-0.070640,-0.006505,-0.003000,0.018473,0.045208,0.990865,-0.127055,0.007306,0.018403,0.000724,0.0000,-0.1830,-0.0610,-0.339580,0.052161,-0.042975,-0.938146
152658.948000,-0.763123,-0.642605,-0.068573,0.633593,-0.764849,0.116474,-0.127295,0.045436,0.990824,2.6256,7.3133,140.2984,0.037590,1.005370,-0.112790,-0.667007,-0.758277,-0.070860,-0.005833,-0.002641,0.018056,0.045436,0.990824,-0.127295,0.006588,0.017983,0.000479,0.0000,-0.1830,-0.0610,-0.340166,0.052208,-0.043157,-0.937923
152659.023000,-0.763340,-0.642341,-0.068634,0.633270,-0.765051,0.116900,-0.127598,0.045770,0.990769,2.6450,7.3308,140.3207,0.038570,1.006830,-0.112790,-0.668429,-0.759036,-0.070587,-0.006594,-0.002796,0.019517,0.045770,0.990769,-0.127598,0.007268,0.019463,0.000772,0.0610,-0.1830,0.0000,-0.339992,0.052302,-0.043357,-0.937971
152659.098000,-0.763226,-0.642474,-0.068652,0.633356,-0.764925,0.117260,-0.127850,0.046015,0.990726,2.6592,7.3453,140.3127,0.038570,1.005850,-0.113760,-0.667860,-0.758310,-0.071352,-0.005841,-0.003163,0.018686,0.046015,0.990726,-0.127850,0.007032,0.018542,0.000065,0.0000,-0.1830,-0.0610,-0.340064,0.052376,-0.043520,-0.937933
152659.173000,-0.763137,-0.642574,-0.068707,0.633403,-0.764826,0.117653,-0.128149,0.046266,0.990675,2.6739,7.3627,140.3074,0.039060,1.006830,-0.113280,-0.668988,-0.758636,-0.070647,-0.006658,-0.002737,0.019597,0.046266,0.990675,-0.128149,0.007279,0.019550,0.000836,0.0610,-0.1830,-0.0610,-0.340115,0.052473,-0.043693,-0.937902
152659.248000,-0.761483,-0.644563,-0.068421,0.635344,-0.763135,0.118164,-0.128379,0.046509,0.990634,2.6880,7.3759,140.1600,0.039060,1.006340,-0.113760,-0.670610,-0.756599,-0.070905,-0.006295,-0.002739,0.019181,0.046509,0.990634,-0.128379,0.007040,0.019109,0.000591,0.0000,-0.1830,-0.0610,-0.341327,0.052483,-0.043915,-0.937450
152659.323000,-0.760832,-0.645342,-0.068323,0.636075,-0.762461,0.118581,-0.128619,0.046762,0.990591,2.7027,7.3898,140.1035,0.039550,1.005850,-0.114250,-0.671402,-0.755312,-0.071227,-0.006239,-0.003121,0.018779,0.046762,0.990591,-0.128619,0.007284,0.018659,0.000346,0.0000,-0.1830,-0.0610,-0.341796,0.052531,-0.044102,-0.937268
152659.398000,-0.760461,-0.645786,-0.068262,0.636476,-0.762070,0.118943,-0.128832,0.047005,0.990552,2.7168,7.4021,140.0720,0.039550,1.005850,-0.113760,-0.671875,-0.754887,-0.070501,-0.006611,-0.002465,0.018713,0.047005,0.990552,-0.128832,0.007028,0.018694,0.001047,0.0000,-0.1830,-0.0610,-0.342060,0.052577,-0.044269,-0.937161
152659.473000,-0.760116,-0.646189,-0.068292,0.636824,-0.761714,0.119362,-0.129149,0.047239,0.990499,2.7305,7.4204,140.0438,0.039550,1.006340,-0.114740,-0.672513,-0.755052,-0.071220,-0.006021,-0.002660,0.019330,0.047239,0.990499,-0.129149,0.006830,0.019240,0.000387,0.0610,-0.1830,-0.0610,-0.342297,0.052676,-0.044448,-0.937060
152659.549000,-0.760367,-0.645885,-0.068371,0.636476,-0.761958,0.119658,-0.129381,0.047467,0.990458,2.7438,7.4338,140.0685,0.039550,1.005850,-0.114740,-0.671891,-0.754972,-0.071017,-0.006015,-0.002378,0.018848,0.047467,0.990458,-0.129381,0.006592,0.018795,0.000621,0.0000,-0.1830,-0.0610,-0.342101,0.052755,-0.044585,-0.937121
152659.624000,-0.760798,-0.645369,-0.068446,0.635917,-0.762378,0.119958,-0.129599,0.047738,0.990417,2.7595,7.4464,140.1093,0.041010,1.006340,-0.114740,-0.672808,-0.754896,-0.070915,-0.006989,-0.003101,0.019369,0.047738,0.990417,-0.129599,0.007799,0.019290,0.000835,0.0000,-0.1830,-0.0610,-0.341775,0.052827,-0.044732,-0.937229
152659.699000,-0.760137,-0.646159,-0.068343,0.636657,-0.761692,0.120387,-0.129845,0.048000,0.990372,2.7747,7.4607,140.0519,0.041010,1.005850,-0.115720,-0.673204,-0.753970,-0.071650,-0.006254,-0.003414,0.019023,0.048000,0.990372,-0.129845,0.007555,0.018856,0.000110,0.0000,-0.1830,-0.0610,-0.342251,0.052876,-0.044925,-0.937043
152659.774000,-0.759519,-0.646892,-0.068273,0.637342,-0.761055,0.120795,-0.130101,0.048234,0.990327,2.7884,7.4754,139.9987,0.040520,1.005850,-0.116210,-0.673518,-0.753719,-0.071842,-0.005625,-0.002999,0.019079,0.048234,0.990327,-0.130101,0.006842,0.018916,-0.000122,0.0000,-0.1830,-0.0610,-0.342693,0.052935,-0.045105,-0.936870
152659.849000,-0.759932,-0.646396,-0.068370,0.636802,-0.761460,0.121083,-0.130329,0.048477,0.990285,2.8025,7.4886,140.0379,0.041010,1.005850,-0.115720,-0.673431,-0.753811,-0.071180,-0.006321,-0.002718,0.019025,0.048477,0.990285,-0.130329,0.007078,0.018943,0.000593,0.0000,-0.1830,-0.0610,-0.342379,0.053016,-0.045241,-0.936974
152659.924000,-0.759817,-0.646531,-0.068379,0.636892,-0.761331,0.121424,-0.130564,0.048710,0.990243,2.8161,7.5022,140.0297,0.041010,1.006340,-0.116210,-0.673844,-0.754149,-0.071411,-0.006028,-0.002648,0.019575,0.048710,0.990243,-0.130564,0.006867,0.019475,0.000338,0.0000,-0.1830,-0.0610,-0.342453,0.053083,-0.045397,-0.936935
152659.999000,-0.759676,-0.646691,-0.068434,0.637012,-0.761185,0.121707,-0.130798,0.048865,0.990204,2.8252,7.5157,140.0191,0.041500,1.005370,-0.116210,-0.673738,-0.752980,-0.071372,-0.006355,-0.002846,0.018635,0.048865,0.990204,-0.130798,0.007187,0.018541,0.000578,0.0000,-0.2440,-0.1220,-0.342543,0.053163,-0.045515,-0.936892
152660.074000,-0.759953,-0.646355,-0.068527,0.636631,-0.761456,0.122007,-0.131040,0.049093,0.990161,2.8385,7.5297,140.0463,0.041500,1.005370,-0.116690,-0.673368,-0.753362,-0.071623,-0.006040,-0.002822,0.018702,0.049093,0.990161,-0.131040,0.006972,0.018588,0.000343,0.0000,-0.2440,-0.0610,-0.342327,0.053249,-0.045653,-0.936959
152660.149000,-0.759863,-0.646462,-0.068526,0.636693,-0.761349,0.122352,-0.131268,0.049341,0.990118,2.8529,7.5429,140.0402,0.041990,1.005850,-0.116690,-0.674154,-0.753346,-0.071419,-0.006411,-0.002804,0.019188,0.049341,0.990118,-0.131268,0.007226,0.019095,0.000567,0.0000,-0.1830,-0.0610,-0.342384,0.053311,-0.045813,-0.936927
152660.224000,-0.759357,-0.647063,-0.068459,0.637246,-0.760823,0.122742,-0.131506,0.049580,0.990075,2.8668,7.5567,139.9969,0.041990,1.005370,-0.117180,-0.674401,-0.752534,-0.071693,-0.006046,-0.002823,0.018786,0.049580,0.990075,-0.131506,0.006991,0.018667,0.000321,0.0000,-0.1830,-0.0610,-0.342744,0.053365,-0.045988,-0.936784
152660.299000,-0.758896,-0.647609,-0.068403,0.637760,-0.760348,0.123017,-0.131677,0.049732,0.990044,2.8757,7.5665,139.9570,0.041990,1.004880,-0.117670,-0.674587,-0.751754,-0.072053,-0.005683,-0.002958,0.018373,0.049732,0.990044,-0.131677,0.006843,0.018215,0.000007,-0.0610,-0.1830,-0.1220,-0.343075,0.053403,-0.046108,-0.936655
152660.374000,-0.759102,-0.647357,-0.068507,0.637453,-0.760546,0.123385,-0.131977,0.049992,0.989991,2.8908,7.5838,139.9782,0.042960,1.005850,-0.117180,-0.675728,-0.752068,-0.071393,-0.006811,-0.002881,0.019286,0.049992,0.989991,-0.131977,0.007564,0.019204,0.000788,0.0610,-0.1830,-0.0610,-0.342908,0.053508,-0.046273,-0.936701
152660.449000,-0.759750,-0.646582,-0.068648,0.636633,-0.761188,0.123654,-0.132206,0.050243,0.989948,2.9054,7.5971,140.0386,0.042960,1.005370,-0.117670,-0.674615,-0.752477,-0.071654,-0.006425,-0.002909,0.018884,0.050243,0.989948,-0.132206,0.007318,0.018775,0.000533,0.0000,-0.1830,-0.0610,-0.342422,0.053597,-0.046404,-0.936868
152660.525000,-0.758177,-0.648453,-0.068384,0.638451,-0.759579,0.124177,-0.132466,0.050488,0.989901,2.9197,7.6121,139.8997,0.042960,1.005370,-0.118650,-0.676392,-0.750964,-0.072384,-0.005753,-0.003171,0.019022,0.050488,0.989901,-0.132466,0.007099,0.018830,-0.000182,0.0000,-0.1830,-0.0610,-0.343564,0.053621,-0.046630,-0.936437
152660.600000,-0.756704,-0.650197,-0.068136,0.640146,-0.758071,0.124668,-0.132710,0.050720,0.989856,2.9332,7.6262,139.7699,0.042960,1.005850,-0.118650,-0.678424,-0.749797,-0.072131,-0.005834,-0.002763,0.019495,0.050720,0.989856,-0.132710,0.006877,0.019350,0.000059,0.0000,-0.1830,-0.0610,-0.344631,0.053643,-0.046843,-0.936033
152660.675000,-0.755513,-0.651601,-0.067941,0.641499,-0.756848,0.125141,-0.132963,0.050962,0.989810,2.9473,7.6409,139.6658,0.043450,1.005850,-0.119140,-0.680145,-0.748312,-0.072443,-0.005838,-0.003091,0.019579,0.050962,0.989810,-0.132963,0.007141,0.019389,-0.000176,0.0000,-0.1830,-0.0610,-0.345488,0.053677,-0.047051,-0.935704
152660.750000,-0.755825,-0.651229,-0.068039,0.641081,-0.757152,0.125444,-0.133208,0.051195,0.989765,2.9610,7.6550,139.6958,0.043450,1.005370,-0.119140,-0.679461,-0.748309,-0.072238,-0.005837,-0.002798,0.019108,0.051195,0.989765,-0.133208,0.006898,0.018958,0.000072,0.0000,-0.1830,-0.0610,-0.345249,0.053764,-0.047190,-0.935781
152660.825000,-0.756515,-0.650406,-0.068247,0.640218,-0.757849,0.125643,-0.133440,0.051358,0.989725,2.9705,7.6684,139.7597,0.043940,1.006340,-0.119140,-0.679640,-0.749491,-0.072096,-0.006300,-0.002795,0.020076,0.051358,0.989725,-0.133440,0.007247,0.019949,0.000297,0.0000,-0.1830,-0.1220,-0.344732,0.053872,-0.047278,-0.935961
152660.900000,-0.757196,-0.649596,-0.068402,0.639364,-0.758527,0.125897,-0.133667,0.051595,0.989682,2.9843,7.6815,139.8228,0.043940,1.005370,-0.119140,-0.678206,-0.749506,-0.071912,-0.006245,-0.002568,0.019123,0.051595,0.989682,-0.133667,0.006992,0.019030,0.000531,0.0000,-0.1830,-0.0610,-0.344223,0.053964,-0.047400,-0.936136
152660.975000,-0.756639,-0.650253,-0.068329,0.639971,-0.757947,0.126309,-0.133923,0.051842,0.989635,2.9987,7.6963,139.7752,0.044430,1.004880,-0.120110,-0.678837,-0.748383,-0.072720,-0.005855,-0.003263,0.018795,0.051842,0.989635,-0.133923,0.007255,0.018588,-0.000175,0.0000,-0.1830,-0.0610,-0.344619,0.054021,-0.047584,-0.935978
152661.050000,-0.757732,-0.648954,-0.068568,0.638645,-0.759050,0.126394,-0.134070,0.051982,0.989608,3.0069,7.7048,139.8745,0.043940,1.005370,-0.119620,-0.677531,-0.750183,-0.072007,-0.005951,-0.002317,0.019193,0.051982,0.989608,-0.134070,0.006618,0.019108,0.000456,-0.0610,-0.1830,-0.1220,-0.343812,0.054108,-0.047629,-0.936268
152661.125000,-0.757680,-0.649014,-0.068567,0.638656,-0.758980,0.126757,-0.134308,0.052250,0.989561,3.0225,7.7186,139.8721,0.045410,1.005370,-0.120110,-0.678670,-0.749279,-0.072424,-0.006557,-0.003396,0.019308,0.052250,0.989561,-0.134308,0.007842,0.019125,0.000206,0.0000,-0.1830,-0.0610,-0.343839,0.054173,-0.047799,-0.936245
152661.200000,-0.757649,-0.649041,-0.068660,0.638641,-0.758947,0.127028,-0.134555,0.052393,0.989520,3.0309,7.7329,139.8716,0.044430,1.005370,-0.120600,-0.677908,-0.749968,-0.072640,-0.005658,-0.002688,0.019348,0.052393,0.989520,-0.134555,0.006726,0.019192,-0.000034,0.0000,-0.1830,-0.1220,-0.343847,0.054264,-0.047910,-0.936231
152661.275000,-0.758428,-0.648111,-0.068835,0.637686,-0.759732,0.127139,-0.134696,0.052531,0.989494,3.0389,7.7410,139.9429,0.044430,1.005370,-0.120110,-0.677021,-0.750750,-0.072020,-0.006035,-0.002173,0.019279,0.052531,0.989494,-0.134696,0.006575,0.019215,0.000595,-0.0610,-0.1830,-0.1220,-0.343269,0.054337,-0.047966,-0.936437
152661.350000,-0.758258,-0.648311,-0.068832,0.637837,-0.759544,0.127505,-0.134944,0.052778,0.989447,3.0533,7.7554,139.9299,0.045410,1.005850,-0.121090,-0.678202,-0.750463,-0.072853,-0.006019,-0.003154,0.019921,0.052778,0.989447,-0.134944,0.007349,0.019723,-0.000136,0.0000,-0.1830,-0.0610,-0.343382,0.054405,-0.048133,-0.936382
152661.425000,-0.758482,-0.648042,-0.068896,0.637540,-0.759764,0.127681,-0.135088,0.052920,0.989419,3.0616,7.7637,139.9514,0.044920,1.005370,-0.120600,-0.677284,-0.750604,-0.072188,-0.006044,-0.002305,0.019365,0.052920,0.989419,-0.135088,0.006692,0.019282,0.000499,-0.0610,-0.1830,-0.1220,-0.343211,0.054457,-0.048215,-0.936438
152661.500000,-0.758711,-0.647767,-0.068954,0.637232,-0.759986,0.127892,-0.135248,0.053094,0.989388,3.0717,7.7730,139.9735,0.045890,1.004390,-0.121090,-0.677079,-0.749566,-0.072685,-0.006249,-0.003235,0.018503,0.053094,0.989388,-0.135248,0.007489,0.018324,0.000178,-0.0610,-0.1830,-0.1220,-0.343035,0.054512,-0.048315,-0.936494
152661.576000,-0.759195,-0.647186,-0.069087,0.636619,-0.760471,0.128065,-0.135420,0.053245,0.989357,3.0806,7.7829,140.0187,0.045410,1.004880,-0.121580,-0.676420,-0.750843,-0.072931,-0.005647,-0.002905,0.019040,0.053245,0.989357,-0.135420,0.006878,0.018856,-0.000141,-0.0610,-0.1830,-0.1220,-0.342670,0.054586,-0.048395,-0.936619
152661.651000,-0.759006,-0.647409,-0.069082,0.636810,-0.760271,0.128300,-0.135584,0.053388,0.989326,3.0889,7.7924,140.0031,0.045410,1.004880,-0.121580,-0.676636,-0.750662,-0.072790,-0.005682,-0.002682,0.019041,0.053388,0.989326,-0.135584,0.006734,0.018886,0.000023,-0.0610,-0.1830,-0.1220,-0.342801,0.054632,-0.048499,-0.936563
152661.726000,-0.759926,-0.646306,-0.069290,0.635678,-0.761197,0.128422,-0.135743,0.053545,0.989296,3.0981,7.8016,140.0875,0.045890,1.004390,-0.121580,-0.675592,-0.750981,-0.072728,-0.005974,-0.002884,0.018575,0.053545,0.989296,-0.135743,0.007051,0.018419,0.000185,-0.0610,-0.1830,-0.1220,-0.342116,0.054716,-0.048560,-0.936806
152661.801000,-0.760822,-0.645228,-0.069507,0.634569,-0.762101,0.128549,-0.135914,0.053696,0.989264,3.1069,7.8115,140.1700,0.045890,1.004390,-0.122070,-0.674490,-0.752018,-0.073065,-0.005644,-0.002980,0.018646,0.053696,0.989264,-0.135914,0.006914,0.018455,-0.000131,-0.0610,-0.1830,-0.1220,-0.341446,0.054806,-0.048622,-0.937041
152661.876000,-0.761498,-0.644418,-0.069615,0.633722,-0.762768,0.128766,-0.136079,0.053938,0.989229,3.1210,7.8210,140.2326,0.046380,1.004390,-0.122070,-0.674068,-0.752443,-0.072891,-0.005928,-0.003064,0.018663,0.053938,0.989229,-0.136079,0.007164,0.018480,0.000033,-0.0610,-0.1830,-0.0610,-0.340941,0.054868,-0.048736,-0.937216
152661.951000,-0.762084,-0.643709,-0.069755,0.632966,-0.763349,0.129043,-0.136314,0.054189,0.989183,3.1356,7.8346,140.2879,0.046870,1.004880,-0.122070,-0.674054,-0.753159,-0.072685,-0.006300,-0.003042,0.019161,0.054189,0.989183,-0.136314,0.007416,0.019000,0.000264,0.0000,-0.1830,-0.0610,-0.340496,0.054960,-0.048869,-0.937365
152662.026000,-0.761780,-0.644071,-0.069739,0.633279,-0.763028,0.129403,-0.136557,0.054412,0.989137,3.1487,7.8487,140.2628,0.046380,1.004880,-0.122550,-0.673999,-0.753239,-0.072874,-0.005676,-0.002636,0.019215,0.054412,0.989137,-0.136557,0.006713,0.019061,0.000031,0.0000,-0.1830,-0.0610,-0.340708,0.055025,-0.049029,-0.937276
152662.101000,-0.761516,-0.644387,-0.069706,0.633563,-0.762751,0.129649,-0.136713,0.054566,0.989107,3.1577,7.8577,140.2403,0.046870,1.004880,-0.122550,-0.674681,-0.752666,-0.072790,-0.006015,-0.002787,0.019231,0.054566,0.989107,-0.136713,0.007051,0.019080,0.000186,-0.0610,-0.1830,-0.1220,-0.340896,0.055063,-0.049140,-0.937200
152662.176000,-0.761066,-0.644930,-0.069595,0.634070,-0.762276,0.129965,-0.136869,0.054783,0.989073,3.1703,7.8667,140.2012,0.046870,1.004390,-0.122550,-0.674904,-0.751830,-0.072602,-0.005961,-0.002563,0.018751,0.054783,0.989073,-0.136869,0.006825,0.018628,0.000345,-0.0610,-0.2440,-0.0610,-0.341223,0.055082,-0.049289,-0.937072
152662.251000,-0.761452,-0.644460,-0.069724,0.633567,-0.762663,0.130146,-0.137050,0.054925,0.989040,3.1786,7.8772,140.2378,0.046870,1.004390,-0.123530,-0.674366,-0.752392,-0.073434,-0.005284,-0.002972,0.018894,0.054925,0.989040,-0.137050,0.006710,0.018668,-0.000449,-0.0610,-0.1830,-0.1220,-0.340927,0.055159,-0.049370,-0.937171
152662.326000,-0.760899,-0.645122,-0.069647,0.634194,-0.762092,0.130436,-0.137224,0.055079,0.989007,3.1876,7.8873,140.1895,0.047360,1.004390,-0.123530,-0.675387,-0.751515,-0.073350,-0.005640,-0.003108,0.018910,0.055079,0.989007,-0.137224,0.007049,0.018690,-0.000275,-0.0610,-0.1830,-0.1220,-0.341327,0.055194,-0.049496,-0.937016
152662.401000,-0.760329,-0.645802,-0.069572,0.634844,-0.761507,0.130686,-0.137377,0.055198,0.988980,3.1945,7.8961,140.1395,0.046870,1.004880,-0.123040,-0.676030,-0.751548,-0.072656,-0.005767,-0.002159,0.019304,0.055198,0.988980,-0.137377,0.006434,0.019211,0.000362,-0.0610,-0.2440,-0.1220,-0.341739,0.055224,-0.049603,-0.936859
152662.476000,-0.761864,-0.643945,-0.069986,0.633088,-0.763124,0.129776,-0.136976,0.054565,0.989070,3.1577,7.8729,140.2743,0.040520,0.986320,-0.116690,-0.657840,-0.742175,-0.067147,-0.005032,0.004046,-0.000061,0.054565,0.989070,-0.136976,0.000149,0.000817,0.006404,-0.3660,-0.1220,-0.5490,-0.340618,0.055202,-0.049168,-0.937291
152662.552000,-0.762474,-0.643104,-0.071071,0.631485,-0.763590,0.134750,-0.140927,0.057863,0.988328,3.3506,8.1015,140.3682,0.062980,1.007320,-0.147940,-0.685318,-0.749343,-0.096802,0.001039,-0.026018,0.025991,0.057863,0.988328,-0.140927,0.020703,0.022108,-0.020885,2.1970,0.5490,1.7080,-0.339950,0.056543,-0.051372,-0.937335
152662.627000,-0.761807,-0.643663,-0.073129,0.630939,-0.762823,0.141486,-0.146854,0.061645,0.987235,3.5730,8.4446,140.3680,0.000480,0.926260,-0.097650,-0.589424,-0.720085,-0.039375,0.008423,0.051829,-0.063657,0.061645,0.987235,-0.146854,-0.048882,-0.056127,0.035632,5.0650,1.4640,3.9060,-0.340076,0.058693,-0.054197,-0.936999
152662.702000,-0.760739,-0.644614,-0.075820,0.628714,-0.760867,0.160624,-0.161230,0.074524,0.984099,4.3306,9.2783,140.4279,0.115720,1.062500,-0.159660,-0.760830,-0.761312,-0.096597,-0.034151,-0.039587,0.085060,0.074524,0.984099,-0.161230,0.058474,0.079938,-0.012623,10.5590,0.8540,7.9950,-0.340034,0.063303,-0.062795,-0.936176
152662.777000,-0.760594,-0.644451,-0.078608,0.626658,-0.760399,0.170565,-0.169695,0.080470,0.982206,4.6837,9.7701,140.5147,0.065910,0.966790,-0.149900,-0.661396,-0.719411,-0.080619,-0.003975,0.001594,-0.012809,0.080470,0.982206,-0.169695,0.000319,-0.011996,0.006196,6.2250,0.2440,4.2720,-0.339563,0.066331,-0.067061,-0.935842
152662.852000,-0.759288,-0.645665,-0.081227,0.625454,-0.758527,0.182878,-0.179691,0.088054,0.979774,5.1354,10.3517,140.5205,0.092280,1.054190,-0.193350,-0.735016,-0.777274,-0.113196,0.000444,-0.020015,0.082165,0.088054,0.979774,-0.179691,0.022130,0.076807,-0.027620,6.9580,0.7320,5.0650,-0.339838,0.069757,-0.072434,-0.935092
152662.927000,-0.757666,-0.647643,-0.080628,0.627170,-0.756694,0.184587,-0.180557,0.089288,0.979503,5.2085,10.4022,140.3832,0.084960,0.993650,-0.170410,-0.694162,-0.730060,-0.093536,-0.006304,-0.007951,0.018395,0.089288,0.979503,-0.180557,0.011742,0.017058,-0.003532,0.3660,-0.3660,0.6100,-0.341007,0.069866,-0.073260,-0.934594
152663.002000,-0.756225,-0.649378,-0.080200,0.628849,-0.755177,0.185086,-0.180756,0.089533,0.979444,5.2230,10.4138,140.2543,0.080560,0.993650,-0.172360,-0.692353,-0.731623,-0.094414,-0.002023,-0.005505,0.018468,0.089533,0.979444,-0.180756,0.007125,0.017231,-0.005270,-0.1830,-0.3660,0.0000,-0.342068,0.069835,-0.073491,-0.934190
152663.077000,-0.755727,-0.650031,-0.079602,0.629419,-0.754520,0.185826,-0.180854,0.090331,0.979353,5.2698,10.4195,140.2103,0.087890,0.995600,-0.169920,-0.700065,-0.727456,-0.092374,-0.008319,-0.008508,0.020413,0.090331,0.979353,-0.180854,0.013671,0.019072,-0.002760,-0.1830,-0.4270,0.2440,-0.342456,0.069714,-0.073916,-0.934024
152663.152000,-0.755613,-0.650172,-0.079533,0.629538,-0.754383,0.185976,-0.180915,0.090457,0.979330,5.2772,10.4231,140.2007,0.084470,0.994620,-0.171380,-0.696870,-0.729020,-0.093149,-0.004900,-0.006861,0.019501,0.090457,0.979330,-0.180915,0.010125,0.018212,-0.004145,-0.2440,-0.3050,-0.1830,-0.342540,0.069714,-0.073993,-0.933987
152663.227000,-0.754978,-0.650960,-0.079111,0.630298,-0.753659,0.186340,-0.180923,0.090819,0.979295,5.2984,10.4235,140.1430,0.084960,0.994140,-0.171870,-0.697692,-0.727719,-0.093396,-0.004596,-0.007336,0.019164,0.090819,0.979295,-0.180923,0.010261,0.017763,-0.004621,-0.3050,-0.3660,0.0000,-0.343022,0.069617,-0.074202,-0.933800
152663.302000,-0.754325,-0.651705,-0.079218,0.631042,-0.753052,0.186277,-0.181053,0.090524,0.979298,5.2813,10.4311,140.0853,0.084960,0.995110,-0.170890,-0.699068,-0.727589,-0.092654,-0.005699,-0.006680,0.019919,0.090524,0.979298,-0.181053,0.010548,0.018714,-0.003522,-0.1830,-0.4270,-0.4880,-0.343483,0.069693,-0.074119,-0.933632
152663.377000,-0.754537,-0.651473,-0.079098,0.630802,-0.753227,0.186382,-0.181002,0.090737,0.979288,5.2937,10.4281,140.1040,0.086910,0.993160,-0.170410,-0.699114,-0.725013,-0.092495,-0.006975,-0.008048,0.018067,0.090737,0.979288,-0.181002,0.012245,0.016744,-0.003084,-0.3050,-0.3050,-0.1830,-0.343338,0.069644,-0.074200,-0.933683
152663.452000,-0.753625,-0.652482,-0.079474,0.631808,-0.752427,0.186204,-0.181293,0.090116,0.979292,5.2576,10.4451,140.0249,0.082030,0.995600,-0.171380,-0.697811,-0.729201,-0.092983,-0.003930,-0.004836,0.020285,0.090116,0.979292,-0.181293,0.008031,0.019276,-0.003772,-0.0610,-0.3660,-0.6710,-0.343962,0.069839,-0.074005,-0.933454
152663.528000,-0.752908,-0.653355,-0.079109,0.632665,-0.751642,0.186465,-0.181289,0.090342,0.979271,5.2709,10.4449,139.9598,0.083980,0.994620,-0.170410,-0.699588,-0.726243,-0.092246,-0.005685,-0.005674,0.019282,0.090342,0.979271,-0.181289,0.009721,0.018274,-0.002805,-0.2440,-0.1830,-0.1220,-0.344500,0.069756,-0.074151,-0.933250
152663.603000,-0.752468,-0.653887,-0.078891,0.633207,-0.751173,0.186514,-0.181220,0.090391,0.979280,5.2737,10.4409,139.9192,0.086910,0.997550,-0.166500,-0.704546,-0.725356,-0.088630,-0.010630,-0.004879,0.021593,0.090391,0.979280,-0.181220,0.012568,0.021075,0.000996,-0.1830,-0.3050,-0.3050,-0.344833,0.069688,-0.074187,-0.933129
152663.678000,-0.752438,-0.653951,-0.078645,0.633246,-0.751076,0.186775,-0.181210,0.090734,0.979250,5.2937,10.4403,139.9163,0.081540,0.991210,-0.175780,-0.695732,-0.725670,-0.096972,0.000443,-0.007616,0.016817,0.090734,0.979250,-0.181210,0.006956,0.015011,-0.008204,-0.3660,0.3660,-0.0610,-0.344868,0.069621,-0.074351,-0.933108
152663.753000,-0.752075,-0.654278,-0.079395,0.633524,-0.750869,0.186661,-0.181743,0.090084,0.979211,5.2562,10.4713,139.8903,0.082030,0.995600,-0.171380,-0.699485,-0.727588,-0.093037,-0.004314,-0.004545,0.020284,0.090084,0.979211,-0.181743,0.008062,0.019357,-0.003322,0.1220,-0.4880,-0.6710,-0.345060,0.069971,-0.074153,-0.933027
152663.828000,-0.752087,-0.654300,-0.079101,0.633541,-0.750812,0.186832,-0.181634,0.090400,0.979202,5.2746,10.4649,139.8900,0.083980,0.995110,-0.170410,-0.700781,-0.725774,-0.092161,-0.005965,-0.005305,0.019759,0.090400,0.979202,-0.181634,0.009672,0.018829,-0.002464,-0.3050,-0.1220,-0.0610,-0.345074,0.069863,-0.074284,-0.933019
152663.903000,-0.751259,-0.655375,-0.078060,0.634629,-0.749784,0.187271,-0.181261,0.091150,0.979202,5.3181,10.4432,139.8104,0.084960,0.993650,-0.169430,-0.701814,-0.722834,-0.090735,-0.006421,-0.005314,0.018226,0.091150,0.979202,-0.181261,0.009853,0.017353,-0.001852,-0.4880,-0.0610,0.2440,-0.345745,0.069503,-0.074622,-0.932771
152663.978000,-0.751089,-0.655593,-0.077872,0.634836,-0.749570,0.187423,-0.181244,0.091336,0.979188,5.3290,10.4422,139.7948,0.083980,0.994140,-0.169920,-0.701595,-0.723711,-0.090804,-0.005326,-0.004672,0.018729,0.091336,0.979188,-0.181244,0.008704,0.017878,-0.002360,-0.2440,-0.1830,-0.1220,-0.345879,0.069452,-0.074717,-0.932717
152664.053000,-0.750779,-0.655957,-0.077786,0.635180,-0.749242,0.187572,-0.181320,0.091417,0.979166,5.3338,10.4467,139.7679,0.083490,0.994620,-0.170410,-0.701855,-0.724144,-0.091073,-0.004696,-0.004421,0.019256,0.091417,0.979166,-0.181320,0.008153,0.018390,-0.002774,-0.1830,-0.1830,-0.1830,-0.346101,0.069456,-0.074786,-0.932629
152664.128000,-0.750453,-0.656354,-0.077587,0.635573,-0.748880,0.187684,-0.181290,0.091536,0.979160,5.3407,10.4449,139.7381,0.084960,0.994140,-0.169430,-0.703120,-0.722292,-0.090302,-0.006237,-0.004902,0.018706,0.091536,0.979160,-0.181290,0.009476,0.017880,-0.001826,-0.2440,-0.2440,-0.1830,-0.346348,0.069401,-0.074855,-0.932536
152664.203000,-0.750704,-0.656013,-0.078041,0.635244,-0.749230,0.187402,-0.181408,0.091108,0.979178,5.3158,10.4518,139.7622,0.074210,0.996580,-0.171870,-0.696066,-0.731735,-0.090957,0.002032,0.001810,0.020793,0.091108,0.979178,-0.181408,-0.000795,0.020540,-0.004148,-0.1830,-0.1830,-0.3050,-0.346137,0.069548,-0.074658,-0.932619
152664.278000,-0.750120,-0.656649,-0.078307,0.635939,-0.748755,0.186942,-0.181388,0.090430,0.979245,5.2761,10.4506,139.7093,0.078120,0.999020,-0.177240,-0.700726,-0.731475,-0.097390,0.002726,-0.004791,0.024462,0.090430,0.979245,-0.181388,0.004010,0.022845,-0.009529,-0.4270,-0.2440,-0.6100,-0.346544,0.069624,-0.074363,-0.932486
152664.353000,-0.748765,-0.658184,-0.078386,0.637637,-0.747543,0.186005,-0.181022,0.089293,0.979417,5.2092,10.4293,139.5828,0.089350,0.989250,-0.173820,-0.704386,-0.714865,-0.098084,-0.006818,-0.013819,0.015056,0.089293,0.979417,-0.181022,0.016163,0.012710,-0.006432,-0.7930,-1.8310,-1.0370,-0.347530,0.069571,-0.073833,-0.932165
152664.428000,-0.740443,-0.667390,-0.079591,0.646906,-0.739782,0.185026,-0.182364,0.085514,0.979505,4.9894,10.5075,138.8571,-0.008780,0.978510,-0.212400,-0.629642,-0.768864,-0.122770,0.083755,0.030412,0.005627,0.085514,0.979505,-0.182364,-0.077914,0.004473,-0.043368,-1.2810,-9.1550,1.0370,-0.353299,0.070417,-0.072724,-0.930018
152664.503000,-0.725601,-0.684006,-0.075095,0.662759,-0.724042,0.191085,-0.185075,0.088882,0.978697,5.1892,10.6655,137.5916,0.184080,1.009760,-0.115230,-0.815597,-0.631126,-0.057094,-0.118475,-0.037207,0.030042,0.088882,0.978697,-0.185075,0.110647,0.031190,0.055746,2.0140,-16.9060,2.5630,-0.363680,0.070256,-0.075602,-0.925789
152664.579000,-0.723318,-0.686305,-0.076135,0.664814,-0.721952,0.191854,-0.186636,0.088156,0.978466,5.1482,10.7565,137.4133,0.081050,0.994140,-0.173820,-0.727674,-0.697186,-0.097565,-0.007018,-0.003506,0.019248,0.088156,0.978466,-0.186636,0.009044,0.018695,-0.000847,0.7930,-2.1970,-0.4270,-0.365102,0.071006,-0.075664,-0.925167
152664.654000,-0.723198,-0.686322,-0.077117,0.664861,-0.722072,0.191236,-0.186934,0.087030,0.978510,5.0826,10.7739,137.4066,0.077630,0.994620,-0.174310,-0.725329,-0.699909,-0.098514,-0.005365,-0.001893,0.019577,0.087030,0.978510,-0.186934,0.006753,0.019208,-0.001038,0.0610,0.0610,-1.0980,-0.365116,0.071352,-0.075193,-0.925173
152664.729000,-0.723243,-0.686273,-0.077127,0.664874,-0.722147,0.190907,-0.186711,0.086793,0.978573,5.0685,10.7609,137.4078,0.078120,0.993650,-0.175780,-0.724858,-0.699179,-0.100358,-0.004587,-0.003755,0.018952,0.086793,0.978573,-0.186711,0.007504,0.018183,-0.002717,-0.3660,0.2440,-0.4880,-0.365097,0.071292,-0.075038,-0.925198
152664.804000,-0.723639,-0.685854,-0.077138,0.664458,-0.722534,0.190894,-0.186660,0.086884,0.978575,5.0738,10.7579,137.4413,0.078610,0.993650,-0.174800,-0.724901,-0.699081,-0.099396,-0.005507,-0.003418,0.018793,0.086884,0.978575,-0.186660,0.007879,0.018163,-0.001794,-0.2440,-0.1220,-0.1830,-0.364829,0.071273,-0.075051,-0.925304
152664.879000,-0.723371,-0.686222,-0.076387,0.664842,-0.722112,0.191155,-0.186335,0.087491,0.978583,5.1090,10.7390,137.4142,0.079580,0.993650,-0.173820,-0.726152,-0.697845,-0.097991,-0.006198,-0.003233,0.018670,0.087491,0.978583,-0.186335,0.008221,0.018125,-0.001144,-0.4270,-0.0610,0.1830,-0.365069,0.070990,-0.075292,-0.925212
152664.954000,-0.724020,-0.685610,-0.075722,0.664264,-0.722606,0.191296,-0.185872,0.088202,0.978607,5.1502,10.7120,137.4647,0.080560,0.994140,-0.174310,-0.726720,-0.698203,-0.097869,-0.005727,-0.003997,0.019313,0.088202,0.978607,-0.185872,0.008518,0.018569,-0.002099,-0.5490,0.0000,0.2440,-0.364685,0.070673,-0.075510,-0.925369
152665.029000,-0.724474,-0.685135,-0.075678,0.663814,-0.723047,0.191193,-0.185712,0.088279,0.978631,5.1545,10.7026,137.5019,0.080070,0.993650,-0.172850,-0.725712,-0.698352,-0.096308,-0.006197,-0.002792,0.018520,0.088279,0.978631,-0.185712,0.007899,0.018059,-0.000803,-0.3050,-0.1830,-0.1830,-0.364386,0.070608,-0.075493,-0.925493
152665.104000,-0.724202,-0.685439,-0.075526,0.664123,-0.722752,0.191232,-0.185664,0.088332,0.978635,5.1576,10.6998,137.4779,0.079580,0.994620,-0.173820,-0.726256,-0.699253,-0.097025,-0.005190,-0.002917,0.019620,0.088332,0.978635,-0.185664,0.007398,0.019035,-0.001822,-0.2440,-0.1830,-0.1830,-0.364582,0.070560,-0.075524,-0.925417
152665.179000,-0.725247,-0.684344,-0.075435,0.663048,-0.723752,0.191181,-0.185430,0.088637,0.978652,5.1752,10.6862,137.5652,0.080070,0.994140,-0.172850,-0.725366,-0.699466,-0.095890,-0.005776,-0.002645,0.019000,0.088637,0.978652,-0.185430,0.007551,0.018524,-0.001087,-0.3660,-0.1830,0.0000,-0.363886,0.070451,-0.075570,-0.925696
152665.254000,-0.724478,-0.685260,-0.074501,0.664000,-0.722814,0.191428,-0.185028,0.089217,0.978675,5.2088,10.6628,137.4941,0.081540,0.994620,-0.172360,-0.727806,-0.697777,-0.095034,-0.006470,-0.003146,0.019475,0.089217,0.978675,-0.185028,0.008445,0.018940,-0.001005,-0.4880,-0.1830,0.1830,-0.364480,0.070108,-0.075812,-0.925468
152665.329000,-0.723716,-0.686095,-0.074221,0.664834,-0.722012,0.191558,-0.185015,0.089289,0.978671,5.2129,10.6620,137.4282,0.081050,0.994620,-0.171870,-0.728304,-0.697166,-0.094391,-0.006420,-0.002403,0.019348,0.089289,0.978671,-0.185015,0.007867,0.018951,-0.000531,-0.1830,-0.1830,-0.1830,-0.365015,0.070044,-0.075883,-0.925257
152665.404000,-0.725003,-0.684674,-0.074773,0.663398,-0.723376,0.191390,-0.185129,0.089154,0.978662,5.2051,10.6686,137.5406,0.080070,0.993650,-0.172850,-0.725453,-0.698746,-0.095398,-0.005153,-0.002550,0.018526,0.089154,0.978662,-0.185129,0.007025,0.018028,-0.001385,-0.1220,-0.2440,-0.3050,-0.364102,0.070197,-0.075772,-0.925613
152665.479000,-0.725180,-0.684494,-0.074715,0.663226,-0.723537,0.191376,-0.185055,0.089230,0.978669,5.2095,10.6643,137.5549,0.081540,0.995110,-0.172360,-0.727400,-0.698905,-0.094980,-0.006518,-0.003040,0.019952,0.089230,0.978669,-0.185055,0.008442,0.019432,-0.000982,-0.2440,-0.2440,-0.1830,-0.363989,0.070158,-0.075785,-0.925660
152665.555000,-0.724288,-0.685474,-0.074381,0.664218,-0.722603,0.191467,-0.184993,0.089272,0.978677,5.2119,10.6607,137.4772,0.081050,0.994620,-0.172360,-0.727670,-0.697882,-0.094887,-0.006069,-0.002769,0.019443,0.089272,0.978677,-0.184993,0.007897,0.018949,-0.001040,-0.2440,-0.3050,-0.1830,-0.364618,0.070070,-0.075841,-0.925414
152665.630000,-0.723441,-0.686404,-0.074051,0.665161,-0.721716,0.191540,-0.184917,0.089312,0.978687,5.2142,10.6563,137.4033,0.081050,0.994620,-0.171870,-0.728618,-0.696842,-0.094363,-0.006331,-0.002452,0.019348,0.089312,0.978687,-0.184917,0.007844,0.018935,-0.000628,-0.2440,-0.3050,-0.1830,-0.365216,0.069978,-0.075891,-0.925182
152665.705000,-0.723292,-0.686533,-0.074308,0.665291,-0.721630,0.191410,-0.185032,0.089008,0.978693,5.1965,10.6630,137.3918,0.081050,0.994620,-0.172360,-0.728654,-0.696817,-0.095155,-0.006285,-0.002931,0.019441,0.089008,0.978693,-0.185032,0.008161,0.018933,-0.001001,-0.1220,-0.4270,-0.4270,-0.365298,0.070081,-0.075776,-0.925151
152665.780000,-0.723989,-0.685774,-0.074518,0.664524,-0.722349,0.191364,-0.185061,0.089027,0.978686,5.1977,10.6647,137.4523,0.080560,0.994140,-0.172360,-0.727236,-0.697565,-0.095089,-0.005914,-0.002627,0.018941,0.089027,0.978686,-0.185061,0.007640,0.018475,-0.000969,-0.1830,-0.3660,-0.1830,-0.364811,0.070130,-0.075754,-0.925341
152665.855000,-0.724583,-0.685146,-0.074523,0.663896,-0.722925,0.191366,-0.184988,0.089186,0.978686,5.2069,10.6604,137.5027,0.081050,0.994140,-0.172360,-0.727014,-0.697864,-0.095017,-0.006085,-0.002923,0.018975,0.089186,0.978686,-0.184988,0.007974,0.018465,-0.001042,-0.2440,-0.1830,-0.1220,-0.364410,0.070100,-0.075784,-0.925499
152665.930000,-0.725156,-0.684523,-0.074683,0.663270,-0.723514,0.191315,-0.184993,0.089198,0.978683,5.2076,10.6607,137.5521,0.081540,0.994620,-0.172360,-0.727097,-0.698513,-0.095052,-0.006453,-0.003192,0.019475,0.089198,0.978683,-0.184993,0.008464,0.018932,-0.001040,-0.1830,-0.1830,-0.2440,-0.364010,0.070133,-0.075761,-0.925656
152666.005000,-0.724848,-0.684880,-0.074390,0.663649,-0.723161,0.191332,-0.184835,0.089318,0.978702,5.2144,10.6515,137.5237,0.080560,0.994140,-0.171870,-0.726475,-0.698344,-0.094306,-0.005885,-0.002243,0.018848,0.089318,0.978702,-0.184835,0.007336,0.018455,-0.000707,-0.3050,-0.2440,-0.1220,-0.364243,0.070018,-0.075805,-0.925569
152666.080000,-0.725327,-0.684366,-0.074458,0.663139,-0.723641,0.191289,-0.184793,0.089371,0.978705,5.2175,10.6491,137.5645,0.081050,0.994620,-0.172850,-0.726602,-0.699064,-0.095256,-0.005502,-0.003179,0.019539,0.089371,0.978705,-0.184793,0.007811,0.018924,-0.001728,-0.2440,-0.2440,-0.1830,-0.363916,0.070015,-0.075797,-0.925699
152666.155000,-0.725987,-0.683663,-0.074489,0.662441,-0.724289,0.191252,-0.184703,0.089502,0.978711,5.2251,10.6438,137.6205,0.081050,0.994140,-0.171380,-0.725732,-0.699131,-0.093725,-0.006335,-0.002235,0.018788,0.089502,0.978711,-0.184703,0.007631,0.018432,-0.000352,-0.2440,-0.2440,-0.1220,-0.363468,0.069986,-0.075807,-0.925876
152666.230000,-0.726616,-0.682971,-0.074697,0.661749,-0.724945,0.191161,-0.184709,0.089470,0.978712,5.2232,10.6442,137.6750,0.081050,0.994620,-0.171870,-0.725351,-0.700265,-0.094194,-0.006054,-0.002511,0.019350,0.089470,0.978712,-0.184709,0.007686,0.018910,-0.000837,-0.1830,-0.2440,-0.2440,-0.363026,0.070030,-0.075760,-0.926050
152666.305000,-0.726053,-0.683580,-0.074609,0.662369,-0.724386,0.191134,-0.184701,0.089355,0.978724,5.2165,10.6437,137.6262,0.080070,0.994620,-0.171870,-0.725214,-0.700303,-0.094129,-0.005457,-0.001880,0.019282,0.089355,0.978724,-0.184701,0.006815,0.018920,-0.000844,-0.1830,-0.1220,-0.3050,-0.363416,0.070016,-0.075734,-0.925900
152666.380000,-0.726262,-0.683354,-0.074637,0.662134,-0.724590,0.191175,-0.184721,0.089423,0.978714,5.2205,10.6449,137.6445,0.081540,0.995110,-0.172360,-0.726368,-0.700007,-0.094767,-0.006128,-0.003141,0.019954,0.089423,0.978714,-0.184721,0.008248,0.019386,-0.001316,-0.1830,-0.2440,-0.1830,-0.363271,0.070024,-0.075759,-0.925954
152666.455000,-0.726215,-0.683410,-0.074580,0.662189,-0.724531,0.191208,-0.184709,0.089473,0.978712,5.2234,10.6442,137.6403,0.081050,0.994620,-0.171380,-0.725812,-0.699732,-0.093711,-0.006398,-0.002173,0.019255,0.089473,0.978712,-0.184709,0.007670,0.018906,-0.000349,-0.1830,-0.2440,-0.1830,-0.363306,0.070007,-0.075783,-0.925940
152666.531000,-0.726178,-0.683474,-0.074356,0.662251,-0.724443,0.191330,-0.184636,0.089697,0.978705,5.2365,10.6399,137.6362,0.081540,0.994620,-0.171870,-0.726230,-0.699429,-0.094050,-0.006179,-0.002746,0.019385,0.089697,0.978705,-0.184636,0.007951,0.018906,-0.000910,-0.2440,-0.2440,-0.0610,-0.363347,0.069928,-0.075878,-0.925922
152666.606000,-0.726290,-0.683359,-0.074327,0.662131,-0.724543,0.191363,-0.184622,0.089770,0.978701,5.2407,10.6391,137.6457,0.081540,0.994140,-0.171380,-0.725838,-0.699102,-0.093540,-0.006424,-0.002451,0.018823,0.089770,0.978701,-0.184622,0.007856,0.018431,-0.000433,-0.1830,-0.1830,-0.1830,-0.363273,0.069915,-0.075904,-0.925950
152666.681000,-0.725958,-0.683711,-0.074327,0.662475,-0.724218,0.191402,-0.184693,0.089710,0.978693,5.2373,10.6432,137.6179,0.080560,0.994620,-0.171380,-0.725777,-0.699755,-0.093379,-0.005886,-0.001643,0.019223,0.089710,0.978693,-0.184693,0.006939,0.018936,-0.000366,-0.1220,-0.2440,-0.2440,-0.363496,0.069940,-0.075906,-0.925860
152666.756000,-0.726204,-0.683443,-0.074378,0.662206,-0.724467,0.191390,-0.184689,0.089734,0.978692,5.2387,10.6430,137.6392,0.081050,0.994620,-0.171380,-0.725878,-0.699698,-0.093446,-0.006202,-0.001989,0.019256,0.089734,0.978692,-0.184689,0.007408,0.018927,-0.000369,-0.1830,-0.3050,-0.1830,-0.363325,0.069948,-0.075903,-0.925927
152666.831000,-0.726423,-0.683171,-0.074746,0.661913,-0.724753,0.191324,-0.184879,0.089506,0.978677,5.2255,10.6541,137.6604,0.080560,0.994140,-0.172360,-0.724805,-0.700158,-0.094597,-0.005438,-0.002415,0.018944,0.089506,0.978677,-0.184879,0.007161,0.018484,-0.001151,-0.0610,-0.3050,-0.3660,-0.363146,0.070094,-0.075819,-0.925993
152666.906000,-0.726589,-0.683002,-0.074679,0.661738,-0.724894,0.191394,-0.184857,0.089647,0.978668,5.2337,10.6528,137.6744,0.081050,0.994140,-0.171380,-0.725091,-0.699813,-0.093585,-0.006349,-0.002022,0.018788,0.089647,0.978668,-0.184857,0.007486,0.018475,-0.000198,-0.1830,-0.1830,-0.1220,-0.363038,0.070067,-0.075872,-0.926033
152666.981000,-0.727151,-0.682376,-0.074926,0.661099,-0.725488,0.191352,-0.184932,0.089608,0.978657,5.2316,10.6572,137.7241,0.081050,0.995110,-0.171870,-0.725097,-0.701246,-0.094020,-0.006166,-0.002168,0.019827,0.089608,0.978657,-0.184932,0.007557,0.019450,-0.000616,-0.1220,-0.2440,-0.2440,-0.362636,0.070142,-0.075838,-0.926188
152667.056000,-0.726981,-0.682552,-0.074971,0.661265,-0.725329,0.191379,-0.185005,0.089553,0.978649,5.2284,10.6614,137.7102,0.080560,0.995110,-0.171870,-0.724895,-0.701403,-0.093989,-0.005923,-0.001797,0.019793,0.089553,0.978649,-0.185005,0.007119,0.019470,-0.000544,-0.1220,-0.2440,-0.2440,-0.362746,0.070177,-0.075834,-0.926142
152667.131000,-0.726831,-0.682736,-0.074758,0.661432,-0.725127,0.191568,-0.184999,0.089790,0.978628,5.2423,10.6611,137.6971,0.082030,0.994620,-0.171870,-0.725836,-0.699893,-0.094065,-0.006722,-0.002783,0.019418,0.089790,0.978628,-0.184999,0.008351,0.018972,-0.000547,-0.1830,-0.2440,-0.0610,-0.362860,0.070122,-0.075953,-0.926092
152667.206000,-0.726720,-0.682856,-0.074734,0.661558,-0.725017,0.191549,-0.184984,0.089761,0.978634,5.2406,10.6602,137.6874,0.081050,0.995110,-0.171870,-0.725573,-0.700774,-0.093868,-0.006100,-0.002011,0.019827,0.089761,0.978634,-0.184984,0.007404,0.019474,-0.000565,-0.1830,-0.1830,-0.2440,-0.362938,0.070113,-0.075942,-0.926063
152667.281000,-0.726442,-0.683146,-0.074793,0.661843,-0.724759,0.191541,-0.185057,0.089642,0.978631,5.2337,10.6645,137.6641,0.081050,0.994620,-0.171870,-0.725494,-0.700138,-0.094036,-0.006199,-0.002131,0.019350,0.089642,0.978631,-0.185057,0.007514,0.018991,-0.000488,-0.1220,-0.2440,-0.3050,-0.363122,0.070155,-0.075914,-0.925990
152667.356000,-0.726177,-0.683439,-0.074681,0.662131,-0.724475,0.191618,-0.185064,0.089700,0.978624,5.2371,10.6649,137.6413,0.081540,0.995110,-0.172360,-0.726438,-0.699970,-0.094504,-0.006196,-0.002687,0.019955,0.089700,0.978624,-0.185064,0.007971,0.019476,-0.000973,-0.1830,-0.2440,-0.1830,-0.363308,0.070132,-0.075957,-0.925915
152667.431000,-0.726535,-0.683069,-0.074584,0.661766,-0.724802,0.191643,-0.184964,0.089879,0.978627,5.2474,10.6590,137.6711,0.080560,0.994140,-0.171380,-0.724814,-0.700087,-0.093266,-0.005934,-0.001410,0.018756,0.089879,0.978627,-0.184964,0.006761,0.018527,-0.000091,-0.2440,-0.2440,-0.0610,-0.363073,0.070072,-0.076004,-0.926008
152667.506000,-0.725689,-0.684005,-0.074244,0.662696,-0.723903,0.191828,-0.184957,0.090006,0.978616,5.2549,10.6586,137.5978,0.081540,0.995110,-0.171870,-0.727073,-0.699296,-0.093710,-0.006250,-0.002195,0.019862,0.090006,0.978616,-0.184957,0.007652,0.019481,-0.000592,-0.1830,-0.2440,-0.1220,-0.363670,0.069996,-0.076108,-0.925771
152667.582000,-0.725383,-0.684327,-0.074274,0.663013,-0.723612,0.191832,-0.185021,0.089907,0.978613,5.2491,10.6623,137.5721,0.081050,0.994140,-0.171870,-0.726343,-0.698604,-0.093810,-0.005952,-0.002029,0.018884,0.089907,0.978613,-0.185021,0.007239,0.018533,-0.000522,-0.1220,-0.1220,-0.3050,-0.363875,0.070027,-0.076089,-0.925690
152667.657000,-0.724987,-0.684755,-0.074187,0.663448,-0.723212,0.191837,-0.185015,0.089860,0.978619,5.2464,10.6620,137.5379,0.081050,0.994620,-0.171870,-0.727081,-0.698520,-0.093814,-0.006020,-0.001983,0.019351,0.089860,0.978619,-0.185015,0.007295,0.019003,-0.000531,-0.1830,-0.2440,-0.2440,-0.364149,0.070010,-0.076087,-0.925583
152667.732000,-0.725282,-0.684450,-0.074123,0.663135,-0.723478,0.191917,-0.184984,0.090040,0.978608,5.2569,10.6602,137.5629,0.082510,0.994620,-0.171380,-0.727908,-0.697761,-0.093421,-0.007219,-0.002608,0.019357,0.090040,0.978608,-0.184984,0.008571,0.018978,-0.000075,-0.1830,-0.1830,-0.1220,-0.363953,0.069979,-0.076150,-0.925658
152667.807000,-0.724814,-0.684903,-0.074512,0.663564,-0.723103,0.191844,-0.185274,0.089608,0.978593,5.2319,10.6771,137.5260,0.080560,0.995110,-0.171870,-0.727139,-0.699083,-0.093947,-0.006094,-0.001544,0.019792,0.089608,0.978593,-0.185274,0.007064,0.019526,-0.000274,0.0610,-0.1220,-0.5490,-0.364237,0.070171,-0.076024,-0.925542
152667.882000,-0.724359,-0.685401,-0.074361,0.664070,-0.722632,0.191871,-0.185244,0.089602,0.978599,5.2315,10.6754,137.4863,0.081050,0.994620,-0.171870,-0.727643,-0.697898,-0.094086,-0.006374,-0.002009,0.019349,0.089602,0.978599,-0.185244,0.007554,0.019023,-0.000301,-0.1830,-0.1220,-0.2440,-0.364557,0.070132,-0.076039,-0.925417
152667.957000,-0.723713,-0.686142,-0.073816,0.664812,-0.721883,0.192120,-0.185108,0.089966,0.978591,5.2526,10.6674,137.4290,0.082030,0.994140,-0.172360,-0.728764,-0.696232,-0.094416,-0.006313,-0.002957,0.019046,0.089966,0.978591,-0.185108,0.008180,0.018537,-0.000923,-0.3050,-0.3660,0.0610,-0.365033,0.069962,-0.076220,-0.925228
152668.032000,-0.724151,-0.685651,-0.074084,0.664315,-0.722366,0.192023,-0.185177,0.089839,0.978590,5.2453,10.6714,137.4676,0.081050,0.994620,-0.171870,-0.727921,-0.697640,-0.093844,-0.006160,-0.001876,0.019350,0.089839,0.978590,-0.185177,0.007317,0.019032,-0.000369,-0.1220,-0.2440,-0.3050,-0.364717,0.070044,-0.076150,-0.925352
152668.107000,-0.723875,-0.685911,-0.074376,0.664549,-0.722152,0.192020,-0.185420,0.089572,0.978569,5.2299,10.6856,137.4467,0.080560,0.994620,-0.172850,-0.727680,-0.697921,-0.094993,-0.005504,-0.002209,0.019505,0.089572,0.978569,-0.185420,0.007118,0.019072,-0.001101,0.0000,-0.1220,-0.4270,-0.364877,0.070194,-0.076083,-0.925283
152668.182000,-0.725343,-0.684320,-0.074723,0.662960,-0.723652,0.191864,-0.185370,0.089629,0.978573,5.2332,10.6827,137.5729,0.080560,0.994140,-0.171380,-0.725938,-0.698885,-0.093538,-0.006415,-0.001300,0.018753,0.089629,0.978573,-0.185370,0.007011,0.018581,0.000315,-0.1830,-0.1220,-0.1830,-0.363860,0.070243,-0.076023,-0.925685
152668.257000,-0.726489,-0.683101,-0.074747,0.661738,-0.724765,0.191884,-0.185250,0.089939,0.978567,5.2513,10.6757,137.6705,0.081050,0.994620,-0.172850,-0.725388,-0.700399,-0.094704,-0.005450,-0.002433,0.019541,0.089939,0.978567,-0.185250,0.007243,0.019063,-0.001271,-0.3050,-0.4270,0.0610,-0.363082,0.070194,-0.076087,-0.925989
152668.332000,-0.726372,-0.683247,-0.074554,0.661896,-0.724614,0.191907,-0.185143,0.090049,0.978577,5.2576,10.6695,137.6591,0.081050,0.994140,-0.171380,-0.725338,-0.699610,-0.093193,-0.006288,-0.001512,0.018789,0.090049,0.978577,-0.185143,0.007084,0.018566,0.000088,-0.2440,-0.2440,-0.1220,-0.363177,0.070116,-0.076126,-0.925954
152668.407000,-0.727263,-0.682267,-0.074839,0.660921,-0.725543,0.191757,-0.185128,0.089995,0.978585,5.2544,10.6686,137.7361,0.080560,0.994140,-0.171870,-0.723994,-0.701005,-0.093636,-0.005632,-0.001543,0.018851,0.089995,0.978585,-0.185128,0.006658,0.018573,-0.000414,-0.1830,-0.1830,-0.2440,-0.362553,0.070170,-0.076051,-0.926201
152668.482000,-0.727222,-0.682316,-0.074788,0.660973,-0.725493,0.191767,-0.185104,0.090025,0.978587,5.2561,10.6672,137.7323,0.081050,0.994140,-0.171380,-0.724442,-0.700535,-0.093216,-0.006273,-0.001566,0.018789,0.090025,0.978587,-0.185104,0.007108,0.018556,0.000049,-0.1830,-0.2440,-0.1830,-0.362585,0.070151,-0.076062,-0.926189
152668.558000,-0.727127,-0.682423,-0.074738,0.661077,-0.725389,0.191802,-0.185105,0.090057,0.978584,5.2580,10.6672,137.7240,0.081540,0.994140,-0.171870,-0.724868,-0.700199,-0.093753,-0.006242,-0.002232,0.018918,0.090057,0.978584,-0.185105,0.007582,0.018552,-0.000438,-0.1830,-0.3050,-0.1830,-0.362653,0.070140,-0.076083,-0.926161
152668.633000,-0.727903,-0.681567,-0.074993,0.660225,-0.726199,0.191670,-0.185095,0.090005,0.978590,5.2549,10.6667,137.7912,0.081050,0.994620,-0.171870,-0.724008,-0.701723,-0.093672,-0.005973,-0.001842,0.019351,0.090005,0.978590,-0.185095,0.007151,0.019032,-0.000450,-0.1830,-0.2440,-0.2440,-0.362108,0.070190,-0.076015,-0.926376
152668.708000,-0.727323,-0.682208,-0.074786,0.660870,-0.725594,0.191742,-0.185072,0.090034,0.978592,5.2566,10.6653,137.7407,0.081050,0.994140,-0.171380,-0.724343,-0.700639,-0.093205,-0.006243,-0.001583,0.018790,0.090034,0.978592,-0.185072,0.007099,0.018551,0.000017,-0.1830,-0.2440,-0.1830,-0.362517,0.070140,-0.076056,-0.926217
152668.783000,-0.727467,-0.682047,-0.074856,0.660715,-0.725751,0.191679,-0.185061,0.089982,0.978599,5.2535,10.6647,137.7530,0.081050,0.995110,-0.171870,-0.724808,-0.701595,-0.093649,-0.006005,-0.001796,0.019828,0.089982,0.978599,-0.185061,0.007183,0.019509,-0.000488,-0.1830,-0.2440,-0.2440,-0.362416,0.070152,-0.076021,-0.926258
152668.858000,-0.727644,-0.681832,-0.075096,0.660479,-0.725968,0.191673,-0.185205,0.089870,0.978582,5.2472,10.6731,137.7701,0.081050,0.994140,-0.171870,-0.723905,-0.701124,-0.093856,-0.006110,-0.001947,0.018883,0.089870,0.978582,-0.185205,0.007276,0.018565,-0.000337,-0.0610,-0.1830,-0.3050,-0.362274,0.070252,-0.075985,-0.926309
152668.933000,-0.728028,-0.681388,-0.075400,0.660013,-0.726397,0.191651,-0.185359,0.089762,0.978563,5.2410,10.6820,137.8053,0.081050,0.994620,-0.172360,-0.723733,-0.702028,-0.094409,-0.005993,-0.002172,0.019444,0.089762,0.978563,-0.185359,0.007407,0.019063,-0.000675,-0.0610,-0.1830,-0.3050,-0.361987,0.070367,-0.075941,-0.926416
152669.008000,-0.728348,-0.681017,-0.075664,0.659620,-0.726756,0.191644,-0.185502,0.089674,0.978544,5.2360,10.6904,137.8348,0.081050,0.994140,-0.172360,-0.723017,-0.702067,-0.094548,-0.006121,-0.002223,0.018977,0.089674,0.978544,-0.185502,0.007486,0.018606,-0.000528,-0.0610,-0.1220,-0.3050,-0.361746,0.070471,-0.075908,-0.926505
152669.083000,-0.727578,-0.681872,-0.075378,0.660473,-0.725945,0.191777,-0.185487,0.089748,0.978540,5.2403,10.6896,137.7678,0.081540,0.994620,-0.172360,-0.724538,-0.701239,-0.094521,-0.006437,-0.002448,0.019477,0.089748,0.978540,-0.185487,0.007914,0.019075,-0.000546,-0.1830,-0.1830,-0.1830,-0.362290,0.070406,-0.075982,-0.926291
152669.158000,-0.726830,-0.682685,-0.075228,0.661278,-0.725183,0.191886,-0.185552,0.089722,0.978530,5.2389,10.6933,137.7037,0.081050,0.994620,-0.172360,-0.724956,-0.700759,-0.094459,-0.006170,-0.002054,0.019444,0.089722,0.978530,-0.185552,0.007447,0.019096,-0.000481,-0.1220,-0.1830,-0.2440,-0.362807,0.070398,-0.076021,-0.926086
152669.233000,-0.727152,-0.682326,-0.075374,0.660906,-0.725522,0.191889,-0.185617,0.089717,0.978518,5.2386,10.6971,137.7324,0.081540,0.994140,-0.172360,-0.724628,-0.700454,-0.094601,-0.006517,-0.002458,0.019010,0.089717,0.978518,-0.185617,0.007935,0.018621,-0.000414,-0.1220,-0.1830,-0.2440,-0.362575,0.070449,-0.076013,-0.926174
152669.308000,-0.728092,-0.681291,-0.075661,0.659888,-0.726505,0.191672,-0.185552,0.089628,0.978538,5.2333,10.6933,137.8132,0.080560,0.994140,-0.171380,-0.722987,-0.701936,-0.093548,-0.006548,-0.001198,0.018752,0.089628,0.978538,-0.185552,0.007013,0.018615,0.000498,-0.1830,-0.0610,-0.3050,-0.361919,0.070489,-0.075909,-0.926436
152669.383000,-0.727781,-0.681630,-0.075604,0.660232,-0.726194,0.191669,-0.185551,0.089577,0.978543,5.2304,10.6932,137.7862,0.081050,0.994620,-0.172360,-0.723918,-0.701811,-0.094605,-0.006266,-0.002174,0.019443,0.089577,0.978543,-0.185551,0.007592,0.019083,-0.000483,-0.1830,-0.3050,-0.2440,-0.362136,0.070479,-0.075902,-0.926353
152669.458000,-0.727536,-0.681898,-0.075536,0.660509,-0.725945,0.191655,-0.185524,0.089543,0.978551,5.2283,10.6917,137.7646,0.081050,0.994620,-0.171870,-0.724214,-0.701445,-0.094159,-0.006616,-0.001885,0.019347,0.089543,0.978551,-0.185524,0.007612,0.019071,-0.000022,-0.1830,-0.2440,-0.2440,-0.362308,0.070459,-0.075894,-0.926287
152669.533000,-0.726625,-0.682839,-0.075816,0.661417,-0.725112,0.191679,-0.185861,0.089133,0.978525,5.2046,10.7113,137.6897,0.080070,0.994620,-0.172850,-0.724241,-0.701382,-0.095367,-0.005794,-0.001893,0.019468,0.089133,0.978525,-0.185861,0.007064,0.019127,-0.000660,0.0610,-0.3660,-0.4880,-0.362901,0.070643,-0.075809,-0.926048
152669.609000,-0.726007,-0.683378,-0.076861,0.661881,-0.724716,0.191572,-0.186619,0.088210,0.978464,5.1514,10.7555,137.6454,0.079580,0.994140,-0.173330,-0.723827,-0.701002,-0.096755,-0.006290,-0.002095,0.019054,0.088210,0.978464,-0.186619,0.007498,0.018726,-0.000376,0.3660,-0.4880,-0.8540,-0.363229,0.071141,-0.075543,-0.925903
152669.684000,-0.726590,-0.682610,-0.078169,0.661049,-0.725546,0.191302,-0.187300,0.087325,0.978414,5.1002,10.7952,137.7042,0.077140,0.993650,-0.174310,-0.720699,-0.703292,-0.098226,-0.005010,-0.001244,0.018601,0.087325,0.978414,-0.187300,0.005946,0.018353,-0.000666,0.3050,-0.4880,-0.7930,-0.362725,0.071664,-0.075216,-0.926087
152669.759000,-0.727425,-0.681721,-0.078162,0.660162,-0.726354,0.191302,-0.187187,0.087558,0.978414,5.1138,10.7887,137.7753,0.079580,0.993650,-0.173330,-0.721733,-0.702364,-0.097482,-0.007121,-0.002284,0.018572,0.087558,0.978414,-0.187187,0.008140,0.018291,0.000196,-0.2440,-0.2440,-0.0610,-0.362158,0.071615,-0.075261,-0.926309
152669.834000,-0.727324,-0.681729,-0.079021,0.660121,-0.726429,0.191158,-0.187721,0.086870,0.978373,5.0740,10.8198,137.7730,0.077630,0.994140,-0.175290,-0.720345,-0.704435,-0.099711,-0.005326,-0.002233,0.019299,0.086870,0.978373,-0.187721,0.006930,0.018876,-0.001223,0.1830,-0.4880,-0.6710,-0.362153,0.071991,-0.075037,-0.926300
152669.909000,-0.726625,-0.682421,-0.079483,0.660813,-0.725857,0.190942,-0.187997,0.086220,0.978378,5.0362,10.8359,137.7158,0.076660,0.994140,-0.174800,-0.720231,-0.704322,-0.099718,-0.005665,-0.001481,0.019136,0.086220,0.978378,-0.187997,0.006591,0.018889,-0.000460,0.0000,-0.6100,-0.6100,-0.362594,0.072204,-0.074817,-0.926129
152669.984000,-0.726290,-0.682777,-0.079487,0.661177,-0.725536,0.190897,-0.188010,0.086092,0.978387,5.0287,10.8367,137.6869,0.076660,0.994620,-0.174800,-0.720887,-0.704316,-0.099807,-0.005807,-0.001484,0.019602,0.086092,0.978387,-0.188010,0.006729,0.019356,-0.000449,-0.1830,-0.4880,-0.2440,-0.362822,0.072215,-0.074777,-0.926042
152670.059000,-0.725968,-0.683133,-0.079376,0.661549,-0.725207,0.190858,-0.187946,0.086046,0.978403,5.0260,10.8329,137.6582,0.076660,0.994620,-0.174800,-0.721235,-0.703953,-0.099850,-0.005790,-0.001561,0.019602,0.086046,0.978403,-0.187946,0.006774,0.019340,-0.000514,-0.2440,-0.4880,-0.1830,-0.363052,0.072174,-0.074762,-0.925956
152670.134000,-0.726668,-0.682340,-0.079779,0.660769,-0.725982,0.190615,-0.187982,0.085798,0.978418,5.0115,10.8350,137.7193,0.076660,0.994620,-0.175780,-0.720352,-0.704928,-0.101060,-0.005297,-0.002392,0.019793,0.085798,0.978418,-0.187982,0.007049,0.019333,-0.001452,-0.1830,-0.3660,-0.3660,-0.362549,0.072277,-0.074613,-0.926157
152670.209000,-0.726037,-0.683050,-0.079449,0.661511,-0.725311,0.190597,-0.187813,0.085824,0.978448,5.0128,10.8252,137.6626,0.076660,0.994620,-0.174800,-0.721146,-0.704014,-0.100068,-0.005842,-0.001825,0.019601,0.085824,0.978448,-0.187813,0.006996,0.019295,-0.000647,-0.3050,-0.2440,-0.1830,-0.363008,0.072156,-0.074629,-0.925986
152670.284000,-0.726176,-0.682938,-0.079151,0.661433,-0.725394,0.190552,-0.187550,0.086021,0.978481,5.0241,10.8099,137.6714,0.076660,0.994140,-0.174310,-0.720807,-0.703653,-0.099420,-0.005811,-0.001613,0.019040,0.086021,0.978481,-0.187550,0.006776,0.018782,-0.000418,-0.3660,-0.1830,-0.0610,-0.362943,0.072002,-0.074667,-0.926020
152670.359000,-0.726437,-0.682740,-0.078459,0.661288,-0.725515,0.190594,-0.187049,0.086571,0.978528,5.0558,10.7806,137.6879,0.077140,0.994140,-0.174310,-0.721100,-0.703474,-0.098933,-0.005382,-0.001907,0.019075,0.086571,0.978528,-0.187049,0.006709,0.018724,-0.000919,-0.5490,-0.0610,0.1830,-0.362828,0.071675,-0.074822,-0.926078
152670.434000,-0.727045,-0.682196,-0.077549,0.660821,-0.725934,0.190618,-0.186334,0.087342,0.978596,5.1003,10.7389,137.7319,0.079100,0.994140,-0.172360,-0.722341,-0.702264,-0.096579,-0.007023,-0.001956,0.018829,0.087342,0.978596,-0.186334,0.007856,0.018598,0.000305,-0.6710,0.0000,0.3050,-0.362497,0.071225,-0.075025,-0.926226
152670.509000,-0.726901,-0.682348,-0.077555,0.660981,-0.725800,0.190574,-0.186328,0.087266,0.978604,5.0958,10.7386,137.7193,0.077630,0.995110,-0.173330,-0.721998,-0.703971,-0.097247,-0.005465,-0.001428,0.019865,0.087266,0.978604,-0.186328,0.006499,0.019591,-0.000672,-0.1830,-0.2440,-0.2440,-0.362596,0.071228,-0.074996,-0.926189
152670.585000,-0.727253,-0.681963,-0.077649,0.660603,-0.726165,0.190496,-0.186297,0.087243,0.978612,5.0945,10.7368,137.7495,0.078610,0.995110,-0.172850,-0.722376,-0.703611,-0.096981,-0.006465,-0.001866,0.019835,0.087243,0.978612,-0.186297,0.007494,0.019558,-0.000226,-0.1830,-0.1830,-0.2440,-0.362351,0.071238,-0.074960,-0.926287
152670.660000,-0.727530,-0.681658,-0.077739,0.660299,-0.726453,0.190449,-0.186294,0.087226,0.978614,5.0934,10.7366,137.7734,0.079100,0.994620,-0.173330,-0.722064,-0.703326,-0.097602,-0.006429,-0.002651,0.019485,0.087226,0.978614,-0.186294,0.008008,0.019063,-0.000703,-0.1830,-0.2440,-0.2440,-0.362157,0.071255,-0.074937,-0.926363
152670.735000,-0.727731,-0.681437,-0.077789,0.660090,-0.726665,0.190365,-0.186248,0.087187,0.978627,5.0911,10.7339,137.7903,0.078120,0.995110,-0.172360,-0.721547,-0.704357,-0.096465,-0.006476,-0.001257,0.019707,0.087187,0.978627,-0.186248,0.007044,0.019551,0.000213,-0.1830,-0.1830,-0.2440,-0.362019,0.071252,-0.074899,-0.926421
152670.810000,-0.728720,-0.680365,-0.077912,0.659022,-0.727652,0.190294,-0.186162,0.087325,0.978631,5.0991,10.7289,137.8752,0.078610,0.994620,-0.173330,-0.720485,-0.704915,-0.097405,-0.005922,-0.002320,0.019453,0.087325,0.978631,-0.186162,0.007416,0.019057,-0.000835,-0.2440,-0.1830,-0.1220,-0.361337,0.071241,-0.074895,-0.926688
152670.885000,-0.728531,-0.680580,-0.077806,0.659236,-0.727444,0.190350,-0.186148,0.087383,0.978628,5.1025,10.7281,137.8586,0.079100,0.994620,-0.172850,-0.721096,-0.704287,-0.096967,-0.006545,-0.002322,0.019392,0.087383,0.978628,-0.186148,0.007838,0.019045,-0.000372,-0.1830,-0.2440,-0.1830,-0.361474,0.071213,-0.074930,-0.926634
152670.960000,-0.728342,-0.680779,-0.077829,0.659431,-0.727265,0.190360,-0.186195,0.087324,0.978624,5.0991,10.7308,137.8428,0.078120,0.994620,-0.172360,-0.720600,-0.704648,-0.096367,-0.006298,-0.001279,0.019232,0.087324,0.978624,-0.186195,0.006898,0.019067,0.000163,-0.1220,-0.2440,-0.2440,-0.361600,0.071236,-0.074921,-0.926584
152671.035000,-0.728830,-0.680228,-0.078083,0.658869,-0.727789,0.190300,-0.186275,0.087250,0.978616,5.0948,10.7355,137.8861,0.077630,0.994620,-0.173330,-0.719614,-0.705710,-0.097303,-0.005390,-0.001577,0.019388,0.087250,0.978616,-0.186275,0.006505,0.019094,-0.000722,-0.1220,-0.2440,-0.2440,-0.361247,0.071315,-0.074874,-0.926719
152671.110000,-0.728793,-0.680263,-0.078121,0.658905,-0.727763,0.190275,-0.186291,0.087197,0.978618,5.0917,10.7364,137.8831,0.078120,0.994620,-0.173820,-0.719957,-0.705448,-0.097929,-0.005427,-0.002297,0.019516,0.087197,0.978618,-0.186291,0.007065,0.019085,-0.001194,-0.1830,-0.2440,-0.2440,-0.361269,0.071331,-0.074854,-0.926711
152671.185000,-0.728806,-0.680239,-0.078203,0.658876,-0.727792,0.190268,-0.186343,0.087142,0.978612,5.0886,10.7395,137.8849,0.077630,0.994620,-0.172850,-0.719639,-0.705615,-0.096946,-0.005855,-0.001286,0.019294,0.087142,0.978612,-0.186343,0.006600,0.019094,-0.000176,-0.1220,-0.1830,-0.2440,-0.361253,0.071367,-0.074837,-0.926716
152671.260000,-0.726732,-0.682516,-0.077670,0.661152,-0.725663,0.190503,-0.186383,0.087093,0.978609,5.0857,10.7418,137.7053,0.078120,0.994620,-0.172360,-0.722229,-0.702945,-0.096609,-0.006603,-0.001306,0.019230,0.087093,0.978609,-0.186383,0.007129,0.019082,0.000351,-0.1220,-0.2440,-0.2440,-0.362703,0.071277,-0.074933,-0.926149
152671.335000,-0.727129,-0.681998,-0.078501,0.660580,-0.726210,0.190400,-0.186861,0.086589,0.978563,5.0567,10.7697,137.7456,0.077140,0.994620,-0.173330,-0.720813,-0.704348,-0.097906,-0.005957,-0.001288,0.019351,0.086589,0.978563,-0.186861,0.006674,0.019158,-0.000136,0.1830,-0.3660,-0.5490,-0.362362,0.071621,-0.074759,-0.926270
152671.410000,-0.728073,-0.680898,-0.079294,0.659428,-0.727278,0.190319,-0.187257,0.086277,0.978515,5.0388,10.7927,137.8323,0.077630,0.995110,-0.173820,-0.720306,-0.705612,-0.098767,-0.006500,-0.001861,0.019952,0.086277,0.978515,-0.187257,0.007501,0.019685,-0.000231,0.1220,-0.3660,-0.4270,-0.361650,0.071921,-0.074632,-0.926535
152671.485000,-0.729112,-0.679741,-0.079676,0.658261,-0.728366,0.190195,-0.187317,0.086226,0.978508,5.0359,10.7962,137.9235,0.077140,0.994140,-0.173820,-0.718152,-0.706380,-0.098813,-0.006159,-0.001672,0.018976,0.086226,0.978508,-0.187317,0.007041,0.018741,-0.000164,-0.1220,-0.2440,-0.2440,-0.360912,0.072019,-0.074562,-0.926821
152671.561000,-0.729099,-0.679752,-0.079692,0.658281,-0.728361,0.190146,-0.187297,0.086176,0.978516,5.0329,10.7951,137.9221,0.077140,0.994140,-0.173820,-0.718160,-0.706365,-0.098863,-0.006178,-0.001724,0.018976,0.086176,0.978516,-0.187297,0.007091,0.018733,-0.000185,-0.1830,-0.2440,-0.2440,-0.360921,0.072017,-0.074535,-0.926819
152671.636000,-0.728753,-0.680147,-0.079496,0.658688,-0.727987,0.190171,-0.187216,0.086225,0.978527,5.0357,10.7904,137.8910,0.077630,0.994140,-0.174310,-0.718877,-0.705736,-0.099381,-0.006073,-0.002432,0.019104,0.086225,0.978527,-0.187216,0.007549,0.018715,-0.000753,-0.2440,-0.2440,-0.1830,-0.361174,0.071950,-0.074563,-0.926724
152671.711000,-0.728493,-0.680460,-0.079197,0.659027,-0.727681,0.190171,-0.187034,0.086345,0.978551,5.0426,10.7797,137.8661,0.077140,0.994620,-0.173820,-0.719229,-0.705984,-0.098639,-0.005906,-0.001694,0.019445,0.086345,0.978551,-0.187034,0.006931,0.019173,-0.000451,-0.3050,-0.1830,-0.1220,-0.361378,0.071826,-0.074601,-0.926651
152671.786000,-0.728241,-0.680754,-0.078986,0.659337,-0.727396,0.190182,-0.186922,0.086420,0.978566,5.0469,10.7732,137.8429,0.078120,0.994140,-0.173330,-0.719964,-0.704591,-0.098303,-0.006744,-0.002187,0.018946,0.086420,0.978566,-0.186922,0.007819,0.018657,-0.000073,-0.2440,-0.1830,-0.1830,-0.361569,0.071744,-0.074630,-0.926580
152671.861000,-0.728789,-0.680106,-0.079515,0.658649,-0.728028,0.190151,-0.187212,0.086207,0.978530,5.0347,10.7901,137.8940,0.077140,0.994140,-0.173330,-0.718557,-0.705912,-0.098348,-0.006439,-0.001427,0.018881,0.086207,0.978530,-0.187212,0.007046,0.018716,0.000218,0.0610,-0.2440,-0.3660,-0.361149,0.071953,-0.074552,-0.926734
152671.936000,-0.727784,-0.681117,-0.080060,0.659597,-0.727149,0.190230,-0.187784,0.085639,0.978470,5.0020,10.8235,137.8137,0.076170,0.994140,-0.174800,-0.718567,-0.705898,-0.100203,-0.005566,-0.001722,0.019102,0.085639,0.978470,-0.187784,0.006679,0.018808,-0.000672,0.2440,-0.3050,-0.6100,-0.361779,0.072275,-0.074441,-0.926472
152672.011000,-0.727834,-0.681026,-0.080389,0.659473,-0.727256,0.190246,-0.188026,0.085453,0.978440,4.9913,10.8376,137.8210,0.076660,0.994140,-0.175290,-0.718739,-0.705788,-0.100972,-0.005866,-0.002384,0.019228,0.085453,0.978440,-0.188026,0.007371,0.018831,-0.000918,0.0000,-0.1830,-0.3660,-0.361714,0.072428,-0.074394,-0.926489
152672.086000,-0.728031,-0.680854,-0.080051,0.659314,-0.727378,0.190333,-0.187816,0.085789,0.978450,5.0108,10.8254,137.8356,0.077140,0.994620,-0.174310,-0.719397,-0.705782,-0.099714,-0.006536,-0.001889,0.019535,0.085789,0.978450,-0.187816,0.007500,0.019278,-0.000156,-0.3050,-0.0610,0.0000,-0.361608,0.072277,-0.074504,-0.926534
152672.161000,-0.729163,-0.679663,-0.079871,0.658147,-0.728443,0.190297,-0.187519,0.086190,0.978472,5.0340,10.8080,137.9304,0.077140,0.994620,-0.173820,-0.718371,-0.706832,-0.098817,-0.006379,-0.001475,0.019442,0.086190,0.978472,-0.187519,0.007086,0.019253,0.000035,-0.3660,-0.0610,0.0610,-0.360855,0.072125,-0.074578,-0.926833
152672.236000,-0.729459,-0.679351,-0.079824,0.657846,-0.728723,0.190266,-0.187427,0.086279,0.978482,5.0391,10.8027,137.9550,0.076170,0.993650,-0.174310,-0.716686,-0.707153,-0.099104,-0.005156,-0.001255,0.018533,0.086279,0.978482,-0.187427,0.006016,0.018307,-0.000538,-0.2440,-0.1830,-0.1220,-0.360659,0.072081,-0.074588,-0.926912
152672.311000,-0.730203,-0.678575,-0.079617,0.657096,-0.729409,0.190229,-0.187158,0.086590,0.978506,5.0571,10.7870,138.0166,0.078120,0.994620,-0.173820,-0.718129,-0.707218,-0.098580,-0.006495,-0.002159,0.019510,0.086590,0.978506,-0.187158,0.007672,0.019197,-0.000327,-0.3660,-0.1830,0.0000,-0.360171,0.071937,-0.074646,-0.927108
152672.386000,-0.730902,-0.677796,-0.079845,0.656312,-0.730135,0.190150,-0.187180,0.086578,0.978503,5.0564,10.7883,138.0778,0.078120,0.994140,-0.172850,-0.717121,-0.707453,-0.097686,-0.007163,-0.001590,0.018852,0.086578,0.978503,-0.187180,0.007648,0.018717,0.000664,-0.1220,-0.1830,-0.2440,-0.359675,0.071990,-0.074606,-0.927300
152672.461000,-0.730342,-0.678310,-0.080600,0.656756,-0.729732,0.190165,-0.187807,0.085951,0.978438,5.0203,10.8249,138.0367,0.076660,0.994140,-0.174310,-0.716273,-0.708256,-0.099502,-0.006044,-0.001522,0.019038,0.085951,0.978438,-0.187807,0.006847,0.018826,-0.000161,0.3050,-0.2440,-0.6710,-0.359987,0.072374,-0.074452,-0.927161
152672.536000,-0.731629,-0.676728,-0.082206,0.655112,-0.731312,0.189767,-0.188539,0.084985,0.978382,4.9644,10.8675,138.1582,0.076170,0.994140,-0.176260,-0.714001,-0.710575,-0.102323,-0.005542,-0.002701,0.019384,0.084985,0.978382,-0.188539,0.007373,0.018908,-0.001370,0.3660,-0.0610,-0.9760,-0.358971,0.072974,-0.074054,-0.927540
152672.612000,-0.732030,-0.676224,-0.082783,0.654610,-0.731830,0.189501,-0.188728,0.084530,0.978385,4.9379,10.8786,138.1957,0.075680,0.994140,-0.175290,-0.713151,-0.711218,-0.101750,-0.006350,-0.001907,0.019158,0.084530,0.978385,-0.188728,0.007309,0.018908,-0.000216,0.0000,0.0610,-0.6100,-0.358652,0.073170,-0.073850,-0.927664
152672.687000,-0.732309,-0.675927,-0.082738,0.654323,-0.732095,0.189470,-0.188639,0.084613,0.978394,4.9427,10.8734,138.2190,0.075680,0.994620,-0.176260,-0.713128,-0.712033,-0.102570,-0.005580,-0.002476,0.019817,0.084613,0.978394,-0.188639,0.007261,0.019382,-0.001272,-0.2440,-0.0610,-0.1830,-0.358466,0.073129,-0.073858,-0.927739
152672.762000,-0.731833,-0.676474,-0.082480,0.654888,-0.731584,0.189491,-0.188527,0.084660,0.978412,4.9454,10.8668,138.1759,0.075190,0.994620,-0.175290,-0.713403,-0.711623,-0.101476,-0.005819,-0.001502,0.019595,0.084660,0.978412,-0.188527,0.006695,0.019368,-0.000419,-0.2440,-0.1220,-0.1830,-0.358816,0.073039,-0.073887,-0.927608
152672.837000,-0.732091,-0.676183,-0.082585,0.654601,-0.731859,0.189422,-0.188524,0.084614,0.978417,4.9427,10.8667,138.1984,0.075190,0.994140,-0.175780,-0.712749,-0.711647,-0.102043,-0.005458,-0.001952,0.019225,0.084614,0.978417,-0.188524,0.006745,0.018891,-0.000906,-0.1830,-0.1830,-0.2440,-0.358632,0.073061,-0.073850,-0.927681
152672.912000,-0.732713,-0.675499,-0.082664,0.653945,-0.732492,0.189240,-0.188382,0.084601,0.978445,4.9418,10.8584,138.2512,0.076170,0.995600,-0.174310,-0.713928,-0.712444,-0.100673,-0.007195,-0.001562,0.020418,0.084601,0.978445,-0.188382,0.007732,0.020277,0.000404,-0.2440,-0.1830,-0.2440,-0.358204,0.073030,-0.073783,-0.927854
152672.987000,-0.733605,-0.674574,-0.082302,0.653086,-0.733304,0.189062,-0.187888,0.084947,0.978510,4.9615,10.8296,138.3232,0.086420,0.995110,-0.169430,-0.720729,-0.705311,-0.097495,-0.016938,-0.006081,0.019636,0.084947,0.978510,-0.187888,0.017553,0.019459,0.004765,-0.3660,0.0610,-0.3050,-0.357631,0.072781,-0.073810,-0.928092
152673.062000,-0.733264,-0.674901,-0.082657,0.653451,-0.733070,0.188706,-0.187952,0.084359,0.978549,4.9272,10.8333,138.2941,0.065420,0.993160,-0.179680,-0.703403,-0.719214,-0.104339,0.004280,0.001916,0.018424,0.084359,0.978549,-0.187952,-0.002739,0.018036,-0.005349,-0.2440,0.0610,-0.4270,-0.357846,0.072900,-0.073561,-0.928020
152673.137000,-0.732588,-0.675626,-0.082730,0.654167,-0.732428,0.188718,-0.188096,0.084133,0.978540,4.9141,10.8417,138.2366,0.074700,0.994620,-0.174800,-0.712255,-0.712609,-0.101419,-0.005864,-0.001524,0.019467,0.084133,0.978540,-0.188096,0.006716,0.019247,-0.000362,-0.0610,-0.2440,-0.3660,-0.358303,0.072972,-0.073518,-0.927841
152673.212000,-0.732589,-0.675587,-0.083043,0.654119,-0.732495,0.188627,-0.188262,0.083866,0.978531,4.8986,10.8514,138.2388,0.073730,0.994140,-0.175290,-0.711085,-0.713039,-0.102033,-0.005124,-0.001301,0.019034,0.083866,0.978531,-0.188262,0.006011,0.018805,-0.000680,-0.0610,-0.3050,-0.3660,-0.358276,0.073101,-0.073421,-0.927849
152673.287000,-0.732586,-0.675554,-0.083330,0.654072,-0.732550,0.188575,-0.188436,0.083644,0.978517,4.8858,10.8615,138.2407,0.074700,0.994620,-0.175780,-0.711997,-0.712898,-0.102886,-0.005761,-0.002315,0.019656,0.083644,0.978517,-0.188436,0.007231,0.019277,-0.000998,-0.0610,-0.3050,-0.3660,-0.358253,0.073224,-0.073347,-0.927854
152673.362000,-0.731953,-0.676269,-0.083093,0.654802,-0.731891,0.188599,-0.188358,0.083636,0.978533,4.8852,10.8570,138.1843,0.075190,0.994140,-0.175780,-0.712736,-0.711520,-0.103023,-0.005998,-0.002814,0.019220,0.083636,0.978533,-0.188358,0.007723,0.018775,-0.001072,-0.2440,-0.1830,-0.2440,-0.358709,0.073153,-0.073364,-0.927682
152673.437000,-0.731843,-0.676395,-0.083039,0.654929,-0.731773,0.188616,-0.188345,0.083652,0.978534,4.8862,10.8562,138.1745,0.073730,0.994140,-0.175290,-0.711834,-0.712260,-0.102252,-0.005334,-0.001400,0.019033,0.083652,0.978534,-0.188345,0.006225,0.018803,-0.000598,-0.1830,-0.1830,-0.1830,-0.358789,0.073137,-0.073376,-0.927652
152673.512000,-0.732496,-0.675606,-0.083705,0.654124,-0.732548,0.188402,-0.188604,0.083250,0.978518,4.8629,10.8713,138.2349,0.074210,0.994140,-0.175780,-0.711291,-0.712830,-0.103238,-0.005782,-0.002215,0.019156,0.083250,0.978518,-0.188604,0.007123,0.018811,-0.000827,0.0000,-0.3660,-0.4880,-0.358286,0.073372,-0.073195,-0.927842
152673.588000,-0.733255,-0.674759,-0.083886,0.653279,-0.733324,0.188317,-0.188584,0.083283,0.978519,4.8648,10.8702,138.3012,0.074210,0.994620,-0.175290,-0.710840,-0.713909,-0.102684,-0.006134,-0.001801,0.019527,0.083283,0.978519,-0.188584,0.007086,0.019282,-0.000362,-0.1830,-0.2440,-0.1830,-0.357750,0.073399,-0.073164,-0.928049
152673.663000,-0.733534,-0.674476,-0.083723,0.652999,-0.733559,0.188369,-0.188466,0.083505,0.978523,4.8777,10.8633,138.3242,0.074700,0.994140,-0.174800,-0.710684,-0.713409,-0.102109,-0.006528,-0.001834,0.018995,0.083505,0.978523,-0.188466,0.007335,0.018788,0.000011,-0.2440,-0.1830,-0.0610,-0.357571,0.073317,-0.073233,-0.928119
152673.738000,-0.733998,-0.673936,-0.084004,0.652456,-0.734070,0.188264,-0.188543,0.083376,0.978519,4.8702,10.8678,138.3659,0.074700,0.993650,-0.175290,-0.709761,-0.713671,-0.102762,-0.006279,-0.002293,0.018614,0.083376,0.978519,-0.188543,0.007467,0.018310,-0.000397,-0.1220,-0.3050,-0.3050,-0.357230,0.073404,-0.073159,-0.928249
152673.813000,-0.734557,-0.673281,-0.084371,0.651806,-0.734696,0.188070,-0.188611,0.083155,0.978525,4.8573,10.8717,138.4159,0.074210,0.994620,-0.175290,-0.709381,-0.715339,-0.102815,-0.006238,-0.001893,0.019526,0.083155,0.978525,-0.188611,0.007215,0.019277,-0.000335,-0.1220,-0.3050,-0.3660,-0.356816,0.073508,-0.073035,-0.928410
152673.888000,-0.735148,-0.672620,-0.084501,0.651146,-0.735297,0.188008,-0.188591,0.083191,0.978526,4.8594,10.8706,138.4676,0.074210,0.994620,-0.175290,-0.708744,-0.715975,-0.102778,-0.006197,-0.001885,0.019526,0.083191,0.978526,-0.188591,0.007179,0.019276,-0.000355,-0.1830,-0.2440,-0.1830,-0.356399,0.073525,-0.073015,-0.928570
152673.963000,-0.734722,-0.673121,-0.084210,0.651656,-0.734824,0.188091,-0.188488,0.083319,0.978535,4.8668,10.8645,138.4288,0.074210,0.994620,-0.175290,-0.709262,-0.715481,-0.102645,-0.006032,-0.001856,0.019527,0.083319,0.978535,-0.188488,0.007051,0.019267,-0.000458,-0.2440,-0.1830,-0.1220,-0.356717,0.073428,-0.073081,-0.928450
152674.038000,-0.734545,-0.673319,-0.084167,0.651872,-0.734651,0.188020,-0.188431,0.083243,0.978552,4.8623,10.8612,138.4126,0.075190,0.994620,-0.174310,-0.710256,-0.714458,-0.101944,-0.007399,-0.002026,0.019394,0.083243,0.978552,-0.188431,0.008085,0.019220,0.000460,-0.1830,-0.1830,-0.3050,-0.356846,0.073405,-0.073045,-0.928406
152674.113000,-0.734301,-0.673607,-0.083993,0.652191,-0.734389,0.187933,-0.188276,0.083220,0.978584,4.8608,10.8522,138.3892,0.071770,0.993160,-0.175780,-0.706936,-0.715593,-0.102878,-0.003808,-0.000835,0.018053,0.083220,0.978584,-0.188276,0.004681,0.017829,-0.001147,-0.3050,-0.1220,-0.1830,-0.357034,0.073321,-0.073021,-0.928342
152674.188000,-0.734049,-0.673955,-0.083407,0.652561,-0.734024,0.188077,-0.187978,0.083629,0.978606,4.8845,10.8348,138.3633,0.077630,0.994140,-0.173820,-0.712492,-0.711755,-0.101555,-0.008746,-0.003608,0.018987,0.083629,0.978606,-0.187978,0.010130,0.018632,0.000497,-0.3660,-0.1830,0.0000,-0.357258,0.073090,-0.073176,-0.928262
152674.263000,-0.733990,-0.674031,-0.083315,0.652638,-0.733946,0.188115,-0.187944,0.083700,0.978607,4.8886,10.8328,138.3576,0.075190,0.994140,-0.174310,-0.710747,-0.713363,-0.101503,-0.006675,-0.002092,0.018932,0.083700,0.978607,-0.187944,0.007619,0.018690,-0.000024,-0.1830,-0.1830,-0.1830,-0.357306,0.073057,-0.073207,-0.928243
152674.338000,-0.733604,-0.674502,-0.082903,0.653135,-0.733492,0.188160,-0.187723,0.083888,0.978633,4.8994,10.8199,138.3210,0.078120,0.995110,-0.173820,-0.714102,-0.711588,-0.101294,-0.008797,-0.003783,0.019964,0.083888,0.978633,-0.187723,0.010384,0.019555,0.000235,-0.3050,-0.1220,-0.1830,-0.357609,0.072895,-0.073278,-0.928134
152674.413000,-0.733837,-0.674269,-0.082733,0.652950,-0.733701,0.187987,-0.187455,0.083932,0.978681,4.9017,10.8043,138.3381,0.071770,0.993650,-0.174310,-0.708234,-0.714948,-0.100649,-0.003788,0.000201,0.018244,0.083932,0.978681,-0.187455,0.003938,0.018207,-0.000509,-0.3660,-0.0610,-0.1220,-0.357471,0.072772,-0.073238,-0.928200
152674.488000,-0.733908,-0.674160,-0.082988,0.652814,-0.733814,0.188018,-0.187652,0.083812,0.978653,4.8949,10.8158,138.3468,0.075680,1.011710,-0.183590,-0.722361,-0.727520,-0.109079,-0.001696,-0.005823,0.037881,0.083812,0.978653,-0.187652,0.008591,0.036119,-0.009665,-0.1830,-0.1830,-0.3050,-0.357397,0.072892,-0.073213,-0.928221
152674.564000,-0.733747,-0.674457,-0.081995,0.653643,-0.733675,0.185664,-0.185380,0.082635,0.979186,4.8239,10.6833,138.3044,0.079100,0.960930,-0.149900,-0.693854,-0.681139,-0.082037,-0.022471,0.003226,-0.017896,0.082635,0.979186,-0.185380,0.011310,-0.015082,0.021915,-1.4030,-0.3660,-1.2810,-0.357688,0.072010,-0.072259,-0.928252
152674.639000,-0.735972,-0.671837,-0.083548,0.650659,-0.736014,0.186885,-0.187048,0.083181,0.978823,4.8573,10.7806,138.5207,0.071280,1.011710,-0.184570,-0.716743,-0.732747,-0.109839,0.002020,-0.004126,0.037796,0.083181,0.978823,-0.187048,0.004824,0.036056,-0.011241,1.0370,1.7080,-0.0610,-0.355962,0.072834,-0.072691,-0.928818
152674.714000,-0.736934,-0.670725,-0.084004,0.649567,-0.737056,0.186580,-0.187060,0.082931,0.978842,4.8427,10.7812,138.6056,0.070310,0.994140,-0.177240,-0.703719,-0.720135,-0.104197,-0.001133,-0.001638,0.019203,0.082931,0.978842,-0.187060,0.003560,0.018587,-0.003822,-0.1220,1.4030,-0.6100,-0.355265,0.072938,-0.072520,-0.929090
152674.789000,-0.736664,-0.671052,-0.083764,0.649907,-0.736746,0.186616,-0.186942,0.083035,0.978855,4.8487,10.7744,138.5803,0.074210,0.994620,-0.173820,-0.707550,-0.716990,-0.101429,-0.006082,-0.002192,0.019242,0.083035,0.978855,-0.186942,0.007294,0.018935,-0.000541,-0.2440,0.0000,-0.1830,-0.355474,0.072848,-0.072564,-0.929014
152674.864000,-0.736647,-0.671073,-0.083735,0.649929,-0.736724,0.186627,-0.186930,0.083057,0.978856,4.8500,10.7737,138.5787,0.073730,0.995110,-0.173820,-0.707550,-0.717642,-0.101277,-0.005780,-0.001744,0.019689,0.083057,0.978856,-0.186930,0.006799,0.019431,-0.000556,-0.1830,-0.2440,-0.1830,-0.355487,0.072837,-0.072573,-0.929009
152674.939000,-0.737798,-0.669760,-0.084119,0.648611,-0.737922,0.186482,-0.186972,0.083026,0.978850,4.8482,10.7761,138.6807,0.076170,0.995110,-0.173330,-0.708103,-0.717231,-0.101286,-0.007819,-0.003245,0.019743,0.083026,0.978850,-0.186972,0.009271,0.019378,-0.000028,-0.1220,-0.1830,-0.3050,-0.354659,0.072927,-0.072501,-0.929324
152675.014000,-0.739199,-0.668150,-0.084612,0.646996,-0.739386,0.186291,-0.187032,0.082963,0.978844,4.8446,10.7796,138.8055,0.072750,0.994140,-0.174800,-0.703222,-0.720548,-0.102232,-0.004467,-0.001846,0.018876,0.082963,0.978844,-0.187032,0.005915,0.018511,-0.001423,-0.1220,0.1830,-0.3050,-0.353645,0.073046,-0.072403,-0.929708
152675.089000,-0.738517,-0.668950,-0.084258,0.647789,-0.738644,0.186479,-0.186982,0.083137,0.978839,4.8547,10.7767,138.7444,0.075680,0.995110,-0.172850,-0.707005,-0.718240,-0.100613,-0.007763,-0.002477,0.019620,0.083137,0.978839,-0.186982,0.008654,0.019397,0.000460,-0.1830,-0.2440,-0.1220,-0.354146,0.072952,-0.072515,-0.929516
152675.164000,-0.739920,-0.667329,-0.084798,0.646181,-0.740129,0.186169,-0.186998,0.082955,0.978851,4.8441,10.7776,138.8689,0.072750,0.995110,-0.174310,-0.703114,-0.721951,-0.101678,-0.004884,-0.001394,0.019724,0.082955,0.978851,-0.186998,0.005928,0.019461,-0.000975,-0.1220,0.3660,-0.4270,-0.353130,0.073071,-0.072353,-0.929906
152675.239000,-0.740070,-0.667175,-0.084693,0.646043,-0.740258,0.186139,-0.186882,0.083040,0.978866,4.8490,10.7709,138.8807,0.073240,0.993650,-0.173820,-0.702420,-0.720595,-0.101321,-0.005283,-0.001696,0.018238,0.083040,0.978866,-0.186882,0.006294,0.017985,-0.000594,-0.2440,0.0610,-0.1830,-0.353036,0.073008,-0.072364,-0.929945
152675.314000,-0.739994,-0.667310,-0.084298,0.646180,-0.740096,0.186305,-0.186712,0.083393,0.978869,4.8695,10.7609,138.8718,0.080560,0.994140,-0.171380,-0.708567,-0.715632,-0.099896,-0.011607,-0.005327,0.018694,0.083393,0.978869,-0.186712,0.013247,0.018285,0.001657,-0.2440,-0.2440,-0.1220,-0.353121,0.072859,-0.072506,-0.929914
152675.389000,-0.741482,-0.665576,-0.084925,0.644448,-0.741678,0.186013,-0.186793,0.083195,0.978870,4.8580,10.7657,139.0050,0.070310,0.994620,-0.174800,-0.699284,-0.724892,-0.101492,-0.002536,0.000064,0.019194,0.083195,0.978870,-0.186793,0.003237,0.019015,-0.001664,-0.1220,0.0610,-0.3050,-0.352033,0.073017,-0.072342,-0.930327
152675.464000,-0.742455,-0.664466,-0.085124,0.643336,-0.742664,0.185928,-0.186762,0.083280,0.978869,4.8629,10.7639,139.0911,0.075190,0.995110,-0.173330,-0.702287,-0.722887,-0.100838,-0.006810,-0.002514,0.019685,0.083280,0.978869,-0.186762,0.008031,0.019382,-0.000238,-0.1830,-0.1830,-0.1830,-0.351337,0.073041,-0.072322,-0.930590
152675.539000,-0.742306,-0.664633,-0.085122,0.643509,-0.742522,0.185895,-0.186757,0.083214,0.978876,4.8590,10.7636,139.0778,0.073730,0.995110,-0.173820,-0.701317,-0.723757,-0.101110,-0.005525,-0.001792,0.019690,0.083214,0.978876,-0.186757,0.006641,0.019412,-0.000730,-0.1830,-0.2440,-0.2440,-0.351443,0.073042,-0.072298,-0.930551
152675.615000,-0.742215,-0.664744,-0.085041,0.643621,-0.742417,0.185927,-0.186730,0.083264,0.978876,4.8619,10.7620,139.0694,0.074210,0.994620,-0.173330,-0.701507,-0.722886,-0.100710,-0.006099,-0.001890,0.019148,0.083264,0.978876,-0.186730,0.007052,0.018911,-0.000265,-0.1830,-0.1830,-0.1830,-0.351513,0.073016,-0.072322,-0.930525
152675.690000,-0.741978,-0.665015,-0.084990,0.643900,-0.742179,0.185912,-0.186712,0.083218,0.978884,4.8592,10.7610,139.0481,0.074210,0.994620,-0.173330,-0.701768,-0.722627,-0.100756,-0.006116,-0.001936,0.019148,0.083218,0.978884,-0.186712,0.007098,0.018903,-0.000284,-0.1830,-0.2440,-0.2440,-0.351684,0.073002,-0.072311,-0.930462
152675.765000,-0.740969,-0.666177,-0.084689,0.645067,-0.741137,0.186023,-0.186691,0.083207,0.978889,4.8586,10.7597,138.9581,0.074700,0.994140,-0.173330,-0.702945,-0.720851,-0.100897,-0.006393,-0.002397,0.018711,0.083207,0.978889,-0.186691,0.007592,0.018411,-0.000302,-0.1830,-0.1830,-0.2440,-0.352414,0.072937,-0.072359,-0.930188
152675.840000,-0.740502,-0.666733,-0.084406,0.645624,-0.740623,0.186138,-0.186617,0.083341,0.978891,4.8663,10.7554,138.9157,0.078610,0.994140,-0.171870,-0.706530,-0.717521,-0.100059,-0.009910,-0.004305,0.018669,0.083341,0.978891,-0.186617,0.011351,0.018310,0.001075,-0.1830,-0.1830,-0.2440,-0.352763,0.072851,-0.072436,-0.930056
152675.915000,-0.740153,-0.667111,-0.084481,0.645993,-0.740297,0.186156,-0.186728,0.083210,0.978881,4.8588,10.7619,138.8861,0.070310,0.994140,-0.175290,-0.700433,-0.723170,-0.101995,-0.002080,-0.000369,0.018823,0.083210,0.978881,-0.186728,0.003227,0.018532,-0.002213,-0.1220,0.0000,-0.2440,-0.352999,0.072909,-0.072413,-0.929964
152675.990000,-0.740519,-0.666729,-0.084283,0.645626,-0.740614,0.186167,-0.186544,0.083445,0.978897,4.8723,10.7512,138.9162,0.082030,0.996090,-0.169920,-0.710546,-0.716391,-0.098518,-0.013648,-0.005225,0.020399,0.083445,0.978897,-0.186544,0.014671,0.020146,0.002928,-0.1830,0.0610,-0.3050,-0.352762,0.072798,-0.072472,-0.930058
152676.065000,-0.740313,-0.666990,-0.084036,0.645953,-0.740389,0.185929,-0.186233,0.083362,0.978963,4.8672,10.7330,138.8940,0.074210,0.994620,-0.172850,-0.703814,-0.720607,-0.100120,-0.005999,-0.001824,0.019056,0.083362,0.978963,-0.186233,0.006940,0.018820,-0.000286,-0.3050,0.9150,-0.4880,-0.352938,0.072652,-0.072389,-0.930009
152676.140000,-0.741719,-0.665381,-0.084390,0.644422,-0.741864,0.185359,-0.185940,0.083101,0.979041,4.8516,10.7159,139.0151,0.068840,0.994140,-0.175290,-0.697749,-0.725646,-0.101802,-0.000563,0.000100,0.018732,0.083101,0.979041,-0.185940,0.001857,0.018406,-0.003001,-0.3660,0.9760,-0.4880,-0.351944,0.072638,-0.072135,-0.930406
152676.215000,-0.743612,-0.663350,-0.083717,0.642513,-0.743603,0.185020,-0.184985,0.083794,0.979163,4.8913,10.6602,139.1716,0.094230,0.997550,-0.160640,-0.718347,-0.710959,-0.091136,-0.027121,-0.008922,0.020796,0.083794,0.979163,-0.184985,0.026368,0.020983,0.010588,-0.4270,1.4030,-0.5490,-0.350695,0.072161,-0.072191,-0.930910
152676.290000,-0.748510,-0.657965,-0.082548,0.637386,-0.748207,0.184187,-0.182952,0.085250,0.979419,4.9746,10.5417,139.5843,0.104000,0.993650,-0.152340,-0.719057,-0.705227,-0.083523,-0.036628,-0.011981,0.016093,0.085250,0.979419,-0.182952,0.034436,0.016578,0.016835,-0.7320,5.4320,-0.9760,-0.347384,0.071201,-0.072257,-0.932220
152676.365000,-0.757395,-0.647335,-0.085502,0.626801,-0.757486,0.182580,-0.182957,0.084692,0.979466,4.9419,10.5421,140.3897,0.027830,0.982420,-0.197750,-0.640125,-0.762830,-0.115578,0.047028,0.014410,0.009030,0.084692,0.979466,-0.182957,-0.040594,0.007454,-0.028238,-0.1830,9.5210,-1.0980,-0.340803,0.071807,-0.071489,-0.934659
152676.440000,-0.759320,-0.644950,-0.086443,0.624098,-0.759410,0.183842,-0.184215,0.085646,0.979147,4.9989,10.6153,140.5826,0.074210,1.006340,-0.176750,-0.690109,-0.750405,-0.100546,-0.001081,-0.002128,0.031232,0.085646,0.979147,-0.184215,0.004989,0.030283,-0.006260,0.9150,2.6240,0.0610,-0.339270,0.072358,-0.072045,-0.935131
152676.515000,-0.758880,-0.645471,-0.086416,0.624552,-0.758947,0.184213,-0.184490,0.085824,0.979080,5.0096,10.6314,140.5459,0.077140,0.994140,-0.171870,-0.685377,-0.737982,-0.097185,-0.005540,-0.002920,0.018603,0.085824,0.979080,-0.184490,0.007389,0.018154,-0.001051,0.0000,-0.3660,-0.0610,-0.339578,0.072435,-0.072202,-0.935001
152676.591000,-0.758429,-0.646005,-0.086393,0.625045,-0.758487,0.184434,-0.184673,0.085881,0.979041,5.0131,10.6421,140.5070,0.076170,0.995110,-0.171870,-0.685767,-0.738867,-0.096874,-0.005112,-0.001845,0.019484,0.085881,0.979041,-0.184673,0.006376,0.019177,-0.000874,-0.0610,-0.3660,-0.1220,-0.339899,0.072487,-0.072286,-0.934874
152676.666000,-0.758984,-0.645353,-0.086395,0.624374,-0.759015,0.184535,-0.184665,0.086117,0.979021,5.0269,10.6416,140.5578,0.078610,0.995110,-0.171380,-0.687054,-0.737847,-0.096606,-0.006891,-0.003228,0.019548,0.086117,0.979021,-0.184665,0.008581,0.019138,-0.000395,-0.1830,-0.3050,-0.0610,-0.339493,0.072475,-0.072366,-0.935016
152676.741000,-0.759390,-0.644864,-0.086470,0.623887,-0.759426,0.184493,-0.184640,0.086155,0.979023,5.0291,10.6402,140.5947,0.078610,0.994620,-0.171380,-0.686271,-0.737915,-0.096608,-0.006799,-0.003299,0.019072,0.086155,0.979023,-0.184640,0.008533,0.018651,-0.000417,-0.1830,-0.1220,-0.2440,-0.339193,0.072480,-0.072356,-0.935125
152676.816000,-0.759606,-0.644579,-0.086701,0.623564,-0.759669,0.184583,-0.184842,0.086147,0.978985,5.0288,10.6519,140.6173,0.078610,0.995110,-0.172850,-0.686153,-0.738841,-0.098023,-0.005924,-0.004033,0.019832,0.086147,0.978985,-0.184842,0.008591,0.019185,-0.001681,-0.0610,-0.3050,-0.2440,-0.339010,0.072591,-0.072373,-0.935182
152676.891000,-0.759432,-0.644815,-0.086465,0.623837,-0.759465,0.184499,-0.184635,0.086174,0.979022,5.0303,10.6399,140.5986,0.077630,0.995600,-0.171380,-0.686114,-0.739315,-0.096323,-0.006239,-0.002374,0.019962,0.086174,0.979022,-0.184635,0.007546,0.019645,-0.000428,-0.3050,0.0000,-0.2440,-0.339162,0.072476,-0.072362,-0.935136
152676.966000,-0.759953,-0.644181,-0.086617,0.623207,-0.760005,0.184409,-0.184622,0.086162,0.979025,5.0295,10.6391,140.6462,0.078120,0.995110,-0.171380,-0.685554,-0.739207,-0.096468,-0.006506,-0.002855,0.019517,0.086162,0.979025,-0.184622,0.008043,0.019145,-0.000438,-0.1830,-0.2440,-0.2440,-0.338773,0.072502,-0.072324,-0.935278
152677.041000,-0.759192,-0.645111,-0.086367,0.624131,-0.759210,0.184558,-0.184631,0.086211,0.979019,5.0324,10.6396,140.5764,0.077630,0.994620,-0.171870,-0.685733,-0.738394,-0.096850,-0.005761,-0.002820,0.019103,0.086211,0.979019,-0.184631,0.007505,0.018680,-0.000914,-0.1830,-0.2440,-0.1830,-0.339344,0.072454,-0.072393,-0.935070
152677.116000,-0.758520,-0.645938,-0.086087,0.624953,-0.758496,0.184711,-0.184608,0.086306,0.979015,5.0380,10.6383,140.5145,0.078610,0.995600,-0.171380,-0.687969,-0.737686,-0.096369,-0.006770,-0.003031,0.020027,0.086306,0.979015,-0.184608,0.008400,0.019629,-0.000456,-0.1830,-0.1830,-0.1830,-0.339853,0.072387,-0.072473,-0.934884
152677.191000,-0.759034,-0.645317,-0.086215,0.624332,-0.759021,0.184654,-0.184600,0.086332,0.979015,5.0395,10.6378,140.5615,0.077140,0.994620,-0.171380,-0.685622,-0.738422,-0.096156,-0.005703,-0.002054,0.018977,0.086332,0.979015,-0.184600,0.006877,0.018692,-0.000457,-0.1830,-0.2440,-0.1830,-0.339470,0.072409,-0.072454,-0.935023
152677.266000,-0.759223,-0.645118,-0.086035,0.624082,-0.759140,0.185011,-0.184666,0.086772,0.978963,5.0653,10.6417,140.5798,0.087400,0.992180,-0.175780,-0.691306,-0.731180,-0.102129,-0.008635,-0.012762,0.018127,0.086772,0.978963,-0.184666,0.016832,0.016127,-0.004756,-0.2440,-0.1220,-0.1830,-0.339338,0.072376,-0.072665,-0.935057
152677.341000,-0.760854,-0.643087,-0.086833,0.622107,-0.760922,0.184340,-0.184620,0.086236,0.979019,5.0339,10.6390,140.7291,0.068840,0.996090,-0.166990,-0.678450,-0.745904,-0.090297,-0.003804,0.007300,0.019020,0.086236,0.979019,-0.184620,-0.001468,0.020297,0.003925,0.0000,0.7320,-0.5490,-0.338099,0.072541,-0.072306,-0.935521
152677.416000,-0.761715,-0.641992,-0.087388,0.620936,-0.761843,0.184479,-0.185010,0.086258,0.978944,5.0355,10.6617,140.8137,0.078610,1.005850,-0.178710,-0.690009,-0.750457,-0.102728,-0.002647,-0.005824,0.031422,0.086258,0.978944,-0.185010,0.008846,0.029917,-0.007413,0.0000,-0.0610,-0.2440,-0.337411,0.072776,-0.072332,-0.935749
152677.491000,-0.761612,-0.642203,-0.086732,0.621549,-0.761785,0.182647,-0.183368,0.085199,0.979345,4.9720,10.5660,140.7822,0.077140,0.979000,-0.160150,-0.673577,-0.727092,-0.087578,-0.012297,0.000829,0.001608,0.085199,0.979345,-0.183368,0.007403,0.002792,0.009586,-1.2200,-0.3660,-1.0370,-0.337620,0.072159,-0.071557,-0.935781
