# FlySight Sensor Fusion Export
# Generated: 2026-01-07T07:17:17.678Z
# Algorithm: madgwick
# Source file: SENSOR.CSV
# Frames: 13084
#
# COORDINATE SYSTEMS:
#   Earth Frame (NWU): X=North, Y=West, Z=Up (right-handed)
#   Body Frame: Sensor-fixed frame, orientation depends on mounting
#
# COLUMN DESCRIPTIONS:
#   timestamp: Time since data start
#   r00-r22: Rotation matrix (body-to-earth transform, row-major)
#            To rotate vector v from body to earth: v_earth = R * v_body
#   roll/pitch/yaw: Euler angles (earth frame)
#   accel_body_*: Raw accelerometer reading (body frame)
#   accel_earth_*: Raw accelerometer rotated to earth frame
#   earth_accel_*: Acceleration in earth frame with gravity removed
#   gravity_body_*: Estimated gravity vector in body frame
#   linear_accel_*: Linear acceleration in body frame (gravity removed)
#   gyro_*: Angular velocity (body frame)
#   q*: Orientation quaternion (body-to-earth, scalar-first: w,x,y,z)
#
timestamp,r00,r01,r02,r10,r11,r12,r20,r21,r22,roll,pitch,yaw,accel_body_x,accel_body_y,accel_body_z,accel_earth_x,accel_earth_y,accel_earth_z,earth_accel_x,earth_accel_y,earth_accel_z,gravity_body_x,gravity_body_y,gravity_body_z,linear_accel_x,linear_accel_y,linear_accel_z,gyro_x,gyro_y,gyro_z,qw,qx,qy,qz
s,-,-,-,-,-,-,-,-,-,deg,deg,deg,g,g,g,g,g,g,g,g,g,g,g,g,g,g,g,deg/s,deg/s,deg/s,-,-,-,-
152650.465000,0.258039,0.441366,-0.859425,-0.214572,0.893515,0.394449,0.942006,0.082625,0.325267,14.2529,-70.3911,-39.7451,0.074700,0.247550,0.761230,-0.525684,0.505427,0.338425,0.000386,-0.016347,-0.210051,0.082625,0.325267,0.942006,-0.031791,-0.075102,-0.194262,10.6810,-17.7000,-44.1890,0.786896,-0.099068,-0.572322,-0.208394
152650.540000,0.235245,0.569832,-0.787370,-0.220233,0.820285,0.527854,0.946656,0.049229,0.318464,8.7874,-71.2012,-43.1122,-0.117670,0.214350,0.911130,-0.622934,0.682686,0.189321,-0.046515,-0.202154,-0.087732,0.049229,0.318464,0.946656,-0.196649,-0.098023,-0.049473,7.5680,-69.8240,-104.1250,0.770389,-0.155319,-0.562711,-0.256385
152650.615000,0.074132,0.596225,-0.799387,-0.314660,0.774629,0.548579,0.946305,0.210868,0.245033,40.7143,-71.1389,-76.7432,0.187980,0.090820,0.918450,-0.666113,0.515044,0.422088,0.088182,-0.112882,-0.087931,0.210868,0.245033,0.946305,-0.053407,-0.153962,-0.041153,-23.5590,-105.9570,-18.1270,0.723497,-0.116694,-0.603213,-0.314751
152650.690000,-0.079512,0.571993,-0.816396,-0.494386,0.688539,0.530563,0.865598,0.445800,0.228038,62.9091,-59.9511,-99.1366,0.708490,0.268550,0.758300,-0.521798,0.236965,0.905909,0.125198,0.242483,0.010028,0.445800,0.228038,0.865598,0.243041,0.028728,-0.121154,-21.9110,-111.1450,-1.9530,0.677692,-0.031269,-0.620486,-0.393386
152650.765000,-0.145902,0.550241,-0.822160,-0.602663,0.609616,0.514943,0.784544,0.570616,0.242666,66.9614,-51.6786,-103.6092,0.893060,0.386230,0.718260,-0.508304,0.067101,1.095332,0.076504,0.301330,0.142737,0.570616,0.242666,0.784544,0.307239,0.126907,-0.080779,-14.8920,-34.3620,-3.6620,0.653142,0.021310,-0.614990,-0.441291
152650.840000,-0.104304,0.587877,-0.802198,-0.508529,0.661658,0.551005,0.854704,0.465413,0.229939,63.7081,-58.7270,-101.5911,0.512690,0.302240,0.798820,-0.516607,0.379416,0.762545,-0.028991,0.088287,-0.033010,0.465413,0.229939,0.854704,0.026010,0.064313,-0.070086,-21.7890,63.1100,3.7840,0.668448,-0.032012,-0.619682,-0.410057
152650.915000,-0.101844,0.593127,-0.798641,-0.354469,0.728485,0.586227,0.929505,0.342798,0.136053,68.3523,-68.3577,-106.0302,0.173330,-0.166990,0.985350,-0.903640,0.394549,0.237928,0.113001,-0.342538,-0.071019,0.342798,0.136053,0.929505,-0.206855,-0.300714,0.043898,-33.8740,69.0300,-3.1730,0.663832,-0.091676,-0.650822,-0.356866
152650.990000,-0.125514,0.598023,-0.791590,-0.316273,0.732149,0.603265,0.940329,0.326077,0.097243,73.3942,-70.1068,-111.6458,0.322260,-0.019040,0.989740,-0.835303,0.481214,0.393068,0.066843,-0.110617,0.010447,0.326077,0.097243,0.940329,-0.037608,-0.118628,0.036420,-6.1640,2.9900,-15.2580,0.652664,-0.106176,-0.663404,-0.350217
152651.065000,-0.178238,0.599451,-0.780314,-0.426006,0.667830,0.610346,0.886990,0.441205,0.136337,72.8283,-62.4974,-112.7041,0.641110,0.160150,0.916990,-0.733808,0.393517,0.764336,0.090724,0.117080,0.092592,0.441205,0.136337,0.886990,0.173426,0.013289,0.016081,3.5400,-27.3430,-30.6390,0.637560,-0.066323,-0.653783,-0.402102
152651.140000,-0.107244,0.678245,-0.726968,-0.432174,0.626693,0.648446,0.895391,0.383719,0.225910,59.5130,-63.5587,-103.9365,0.379880,0.230950,0.823730,-0.482925,0.514705,0.614850,-0.010126,0.019734,-0.087145,0.383719,0.225910,0.895391,-0.027940,0.000471,-0.085472,-0.1220,14.5260,-50.5980,0.660560,-0.100190,-0.614009,-0.420256
152651.215000,-0.065099,0.735431,-0.674466,-0.345218,0.617566,0.706708,0.936262,0.278844,0.213681,52.5366,-69.4330,-100.6790,0.229980,0.180660,0.859860,-0.462055,0.639846,0.449433,-0.026920,-0.039810,-0.112686,0.278844,0.213681,0.936262,-0.075804,-0.034056,-0.090008,-23.0100,31.6160,-49.2550,0.664483,-0.160976,-0.606008,-0.406575
152651.290000,-0.093981,0.751434,-0.653081,-0.264784,0.613492,0.743987,0.959717,0.242847,0.141311,59.8051,-73.6820,-109.5416,0.230460,0.062010,0.943840,-0.591466,0.679225,0.369610,0.021957,-0.078700,-0.049917,0.242847,0.141311,0.959717,-0.043905,-0.079945,-0.029131,-37.6580,13.4880,-25.3290,0.644364,-0.194432,-0.625732,-0.394272
152651.365000,-0.117130,0.787343,-0.605287,-0.203773,0.577460,0.790579,0.971986,0.215942,0.092801,66.7444,-76.4061,-119.8906,0.123530,-0.003900,0.839840,-0.525884,0.636536,0.197165,-0.023264,-0.115566,-0.175600,0.215942,0.092801,0.971986,-0.122971,-0.093578,-0.144407,-27.4650,-6.8350,-52.7950,0.623123,-0.230547,-0.632809,-0.397640
152651.441000,-0.167194,0.821381,-0.545325,-0.240319,0.502476,0.830521,0.956187,0.269910,0.113383,67.2139,-72.9769,-124.8270,0.221670,-0.047360,0.806640,-0.515843,0.592863,0.290634,0.049610,-0.132692,-0.193466,0.269910,0.113383,0.956187,-0.078144,-0.159193,-0.161395,18.0050,-30.2730,-81.1760,0.601802,-0.232888,-0.623756,-0.441050
152651.516000,-0.178410,0.854911,-0.487132,-0.433368,0.376198,0.818943,0.883381,0.357215,0.303373,49.6596,-62.0530,-112.3761,0.296870,0.166010,0.698730,-0.251414,0.506019,0.533526,0.031963,-0.059059,-0.245954,0.357215,0.303373,0.883381,-0.082751,-0.138552,-0.197379,69.7630,-38.7570,-92.5290,0.612609,-0.188427,-0.559293,-0.525734
152651.591000,-0.105842,0.931404,-0.348259,-0.628998,0.208547,0.748913,0.770169,0.298321,0.563778,27.8854,-50.3690,-99.5518,0.353510,0.587400,0.888670,0.200202,0.565680,0.948508,0.017135,-0.044675,0.098372,0.298321,0.563778,0.770169,0.035989,0.016035,0.102050,96.6180,-19.5310,-128.2340,0.645462,-0.174523,-0.433189,-0.604374
152651.666000,-0.017258,0.986645,-0.161970,-0.691607,0.105209,0.714570,0.722067,0.124352,0.680555,10.3549,-46.2254,-91.4294,-0.124510,0.376460,0.582510,0.279232,0.541963,0.353339,-0.212257,-0.134357,-0.345529,0.124352,0.680555,0.722067,-0.266525,-0.296780,-0.152909,78.0020,-21.0570,-105.6510,0.664926,-0.221911,-0.332382,-0.630992
152651.741000,-0.067017,0.997741,-0.004651,-0.848883,-0.054567,0.525757,0.524315,0.039183,0.850622,2.6374,-31.6222,-94.5140,-0.003410,0.785150,0.520990,0.781182,0.233965,0.472142,-0.048325,-0.014716,-0.066393,0.039183,0.850622,0.524315,-0.050014,-0.063988,-0.019081,111.6940,-72.3870,-101.8670,0.657464,-0.185019,-0.201139,-0.702176
152651.816000,-0.248885,0.967375,0.047354,-0.917206,-0.251119,0.309310,0.311110,0.033549,0.949782,2.0230,-18.1261,-105.1817,0.162100,1.263180,0.482910,1.204492,-0.316519,0.551469,0.104461,-0.078569,0.343895,0.033549,0.949782,0.311110,0.132320,0.307270,0.153054,105.6510,-103.8810,-107.0550,0.602034,-0.114512,-0.109527,-0.782590
152651.891000,-0.424460,0.900721,0.092393,-0.859983,-0.432971,0.270121,0.283307,0.035199,0.958383,2.1034,-16.4577,-116.2695,0.238760,1.157220,0.422850,0.980056,-0.592151,0.513628,0.152898,-0.142545,0.226158,0.035199,0.958383,0.283307,0.207397,0.192369,0.121759,52.3680,-114.5010,-105.5290,0.524631,-0.111946,-0.090975,-0.839019
152651.966000,-0.581122,0.809516,0.083553,-0.767084,-0.579147,0.275990,0.271808,0.096292,0.957522,5.7426,-15.7719,-127.1466,0.268550,1.183100,0.348140,0.830766,-0.795106,0.520269,0.128898,-0.088241,0.242672,0.096292,0.957522,0.271808,0.178816,0.218780,0.058743,18.1270,-111.7550,-61.6450,0.446445,-0.100628,-0.105419,-0.882863
152652.041000,-0.710854,0.700791,0.059820,-0.656543,-0.691658,0.300931,0.252265,0.174644,0.951768,10.3978,-14.6116,-137.2745,0.127440,1.001460,0.242670,0.625739,-0.703311,0.438013,-0.008516,0.060363,0.032357,0.174644,0.951768,0.252265,-0.042068,0.048452,-0.025415,2.0140,-102.5390,-23.1320,0.370559,-0.085201,-0.129834,-0.915735
152652.116000,-0.803050,0.589040,0.090235,-0.560123,-0.797803,0.223099,0.203403,0.128617,0.970610,7.5484,-11.7361,-145.1044,0.051750,0.860350,0.208980,0.484080,-0.668753,0.324020,-0.046011,0.039952,-0.116495,0.128617,0.970610,0.203403,-0.073960,-0.108310,-0.009124,21.3010,-108.9470,-14.3430,0.304038,-0.077689,-0.093055,-0.944916
152652.191000,-0.898851,0.438179,0.008123,-0.431340,-0.887797,0.160506,0.077542,0.140767,0.987001,8.1168,-4.4473,-154.3646,0.104000,0.893060,0.143550,0.299005,-0.814675,0.275462,-0.060598,-0.009455,-0.092143,0.140767,0.987001,0.077542,-0.031129,-0.092955,0.051402,58.8370,-114.0740,-39.0620,0.223804,-0.022049,-0.077544,-0.971294
152652.266000,-0.945823,0.324595,-0.007525,-0.323179,-0.938963,0.117917,0.031210,0.113961,0.992995,6.5469,-1.7885,-161.1352,0.147460,1.134270,0.151850,0.227565,-1.094788,0.284651,-0.085578,-0.058457,0.146386,0.113961,0.992995,0.031210,0.043793,0.139111,0.104403,66.1010,-91.4910,-48.6450,0.164476,-0.006014,-0.058876,-0.984604
152652.341000,-0.963250,0.259208,0.070437,-0.256044,-0.965324,0.050898,0.081188,0.030993,0.996217,1.7819,-4.6568,-165.1143,0.005370,1.212400,0.173820,0.321334,-1.162887,0.211174,-0.061762,0.006337,0.221226,0.030993,0.996217,0.081188,-0.015270,0.216361,0.075830,15.0750,-52.0010,-28.8080,0.130041,-0.038268,-0.020668,-0.990554
152652.416000,-0.962442,0.201393,0.182060,-0.203095,-0.979113,0.009444,0.180159,-0.027886,0.983242,-1.6246,-10.3790,-168.0842,-0.075190,1.020500,0.145990,0.304467,-0.982536,0.101539,0.047052,0.049953,0.032645,-0.027886,0.983242,0.180159,-0.040344,0.041136,-0.049549,-41.4420,-33.5690,-9.5820,0.102086,-0.091418,0.004655,-0.990555
152652.492000,-0.982344,0.155555,0.103938,-0.165659,-0.981412,-0.096892,0.086934,-0.112399,0.989853,-6.4783,-4.9873,-170.4279,-0.278800,1.080560,-0.069820,0.434707,-1.007524,-0.214803,0.154870,0.169385,0.101614,-0.112399,0.989853,0.086934,-0.153567,0.100268,-0.171362,0.4270,-31.3110,-22.2770,0.080773,-0.047997,0.052629,-0.994184
152652.567000,-0.995408,0.094662,-0.014196,-0.093248,-0.992461,-0.079532,-0.021618,-0.077843,0.996731,-4.4656,1.2387,-174.6483,-0.042960,0.903320,-0.039550,0.128834,-0.889359,-0.108809,0.036978,-0.034603,-0.090349,-0.077843,0.996731,-0.021618,0.044876,-0.087827,-0.031629,28.6250,-38.6350,-33.8740,0.047068,0.008971,0.039420,-0.998073
152652.642000,-0.993040,0.060121,-0.101273,-0.061091,-0.998111,0.006501,-0.100691,0.012643,0.994837,0.7281,5.7790,-176.4797,-0.045890,1.098140,-0.053220,0.116981,-1.093608,-0.034441,-0.045891,0.043068,0.102956,0.012643,0.994837,-0.100691,-0.044445,0.107352,0.032574,37.1090,-10.8030,12.5730,0.030356,0.050580,-0.004794,-0.998247
152652.717000,-0.996087,0.055708,-0.068616,-0.061507,-0.994436,0.085523,-0.063470,0.089409,0.993971,5.1400,3.6390,-176.4666,0.034660,1.082030,-0.002440,0.025920,-1.078350,0.092118,-0.054284,0.046531,0.082851,0.089409,0.993971,-0.063470,-0.041889,0.090055,0.045952,24.7190,5.2490,26.6110,0.029361,0.033086,-0.043818,-0.998060
152652.792000,-0.991223,0.057791,-0.118901,-0.061660,-0.997672,0.029119,-0.116942,0.036195,0.992479,2.0886,6.7156,-176.4404,-0.001950,1.111320,-0.092280,0.077130,-1.111300,-0.051134,-0.025586,0.025368,0.119199,0.036195,0.992479,-0.116942,-0.022473,0.122083,0.009858,18.1270,4.5770,14.0380,0.029933,0.059099,-0.016366,-0.997669
152652.867000,-0.994718,0.048504,-0.090458,-0.056169,-0.994864,0.084205,-0.085909,0.088841,0.992334,5.1159,4.9283,-176.7681,0.039550,0.999510,-0.064450,0.014969,-1.002025,0.021444,-0.009878,0.036555,0.006331,0.088841,0.992334,-0.085909,-0.036284,0.010254,0.007229,7.4460,3.1730,6.9580,0.026228,0.044192,-0.043360,-0.997737
152652.942000,-0.994920,0.050435,-0.087118,-0.050023,-0.998724,-0.006898,-0.087355,-0.002505,0.996174,-0.1441,5.0115,-177.1217,-0.029290,1.021970,-0.070310,0.086809,-1.018716,-0.070043,-0.006033,0.013229,0.029948,-0.002505,0.996174,-0.087355,-0.013591,0.030268,0.002724,3.6010,1.5250,-2.2580,0.025146,0.043674,0.002354,-0.998727
152653.017000,-0.993533,0.031814,-0.108996,-0.039019,-0.997147,0.064615,-0.106630,0.068450,0.991940,3.9475,6.1211,-177.7510,0.015620,1.041990,-0.090330,0.027477,-1.045464,-0.019943,-0.008972,0.041710,0.050222,0.068450,0.991940,-0.106630,-0.038438,0.053490,0.001931,3.9060,0.8540,2.7460,0.017747,0.054024,-0.033339,-0.997825
152653.092000,-0.995629,0.028627,-0.088902,-0.030478,-0.999345,0.019533,-0.088284,0.022157,0.995849,1.2746,5.0649,-178.2466,0.009760,1.017080,-0.079100,0.026430,-1.018256,-0.057098,0.002871,-0.000532,0.025306,0.022157,0.995849,-0.088284,0.001174,0.024935,-0.005076,0.0610,-0.1220,0.0000,0.014793,0.044347,-0.010434,-0.998852
152653.167000,-0.996496,0.011770,-0.082804,-0.016744,-0.998080,0.059628,-0.081943,0.060806,0.994780,3.4979,4.7003,-179.0374,0.014160,0.992670,-0.067870,0.003194,-0.995048,-0.008316,-0.000447,0.033859,-0.000435,0.060806,0.994780,-0.081943,-0.033825,0.001624,-0.000086,-0.5490,-0.3050,-0.7320,0.007138,0.041242,-0.030149,-0.998669
152653.242000,-0.995059,0.005590,-0.099132,-0.008417,-0.999569,0.028115,-0.098932,0.028811,0.994677,1.6591,5.6777,-179.5154,0.012690,1.021970,-0.083000,0.001314,-1.023970,-0.054370,-0.004728,0.003186,0.030522,0.028811,0.994677,-0.098932,-0.002332,0.030918,0.001658,0.8540,0.0000,0.6100,0.003506,0.049582,-0.014251,-0.998662
152653.317000,-0.996333,-0.004455,-0.085450,0.000853,-0.999111,0.042139,-0.085562,0.041912,0.995451,2.4109,4.9083,179.9509,0.010250,1.004390,-0.074700,-0.008304,-1.006637,-0.033141,0.002322,0.018969,0.012165,0.041912,0.995451,-0.085562,-0.018452,0.012710,-0.003338,-0.1220,-0.1830,-0.1830,-0.001329,0.042802,-0.021037,-0.998861
152653.392000,-0.995540,-0.010087,-0.093804,0.006961,-0.999411,0.033592,-0.094087,0.032790,0.995024,1.8874,5.3988,179.5994,0.013670,1.013180,-0.079100,-0.016409,-1.015146,-0.046771,-0.002737,0.006335,0.021444,0.032790,0.995024,-0.094087,-0.005600,0.021807,0.000751,0.3050,-0.1220,0.1830,-0.004267,0.047032,-0.016616,-0.998746
152653.468000,-0.995843,-0.019221,-0.089030,0.015278,-0.998881,0.044763,-0.089791,0.043217,0.995023,2.4870,5.1516,179.1211,0.013670,1.008780,-0.077140,-0.026135,-1.010895,-0.034387,0.000319,0.016904,0.016787,0.043217,0.995023,-0.089791,-0.016166,0.017432,-0.001566,0.1830,-0.1220,0.0610,-0.008636,0.044763,-0.022023,-0.998718
152653.543000,-0.995410,-0.024522,-0.092504,0.021508,-0.999209,0.033437,-0.093251,0.031294,0.995151,1.8012,5.3506,178.7622,0.013180,1.010250,-0.079100,-0.030575,-1.011813,-0.048331,-0.001558,0.005277,0.018556,0.031294,0.995151,-0.093251,-0.004654,0.018787,-0.000066,0.3050,-0.0610,0.1220,-0.011522,0.046498,-0.016203,-0.998720
152653.618000,-0.995258,-0.030344,-0.092411,0.026762,-0.998851,0.039762,-0.093511,0.037101,0.994927,2.1356,5.3656,178.4597,0.013670,1.010740,-0.080070,-0.036876,-1.012396,-0.043443,-0.000729,0.010674,0.019098,0.037101,0.994927,-0.093511,-0.009931,0.019493,-0.000774,0.3050,-0.0610,0.1220,-0.014296,0.046544,-0.019242,-0.998629
152653.693000,-0.995062,-0.033861,-0.093298,0.030736,-0.998924,0.034730,-0.094373,0.031690,0.995032,1.8242,5.4152,178.2308,0.014160,1.010250,-0.081050,-0.040736,-1.011543,-0.049968,-0.000747,0.004636,0.018760,0.031690,0.995032,-0.094373,-0.004011,0.018898,-0.000884,0.2440,-0.1220,0.0610,-0.016171,0.046982,-0.016628,-0.998626
152653.768000,-0.994842,-0.040258,-0.093104,0.036389,-0.998417,0.042891,-0.094683,0.039282,0.994732,2.2614,5.4331,177.9052,0.014640,1.009760,-0.081050,-0.047669,-1.011105,-0.042344,-0.000725,0.011893,0.018220,0.039282,0.994732,-0.094683,-0.011129,0.018701,-0.000571,0.3050,-0.1220,0.1220,-0.019191,0.047017,-0.020574,-0.998498
152653.843000,-0.994553,-0.043784,-0.094593,0.040563,-0.998539,0.035713,-0.096018,0.031681,0.994875,1.8239,5.5099,177.6645,0.015130,1.010250,-0.082510,-0.051475,-1.011107,-0.051534,-0.000982,0.003634,0.018918,0.031681,0.994875,-0.096018,-0.002986,0.019044,-0.000692,0.3050,-0.0610,0.0610,-0.021118,0.047725,-0.016874,-0.998495
152653.918000,-0.994430,-0.047965,-0.093852,0.044312,-0.998191,0.040632,-0.095631,0.036247,0.994757,2.0868,5.4877,177.4486,0.015620,1.010740,-0.082510,-0.056269,-1.011572,-0.046935,-0.000428,0.007787,0.019382,0.036247,0.994757,-0.095631,-0.007050,0.019637,-0.001083,0.2440,-0.0610,0.0610,-0.023106,0.047446,-0.019250,-0.998421
152653.993000,-0.994074,-0.052453,-0.095208,0.048813,-0.998000,0.040168,-0.097125,0.035283,0.994647,2.0316,5.5736,177.1888,0.015620,1.009760,-0.083490,-0.060544,-1.010332,-0.048933,-0.000915,0.006792,0.018523,0.035283,0.994647,-0.097125,-0.006077,0.018783,-0.000558,0.2440,-0.1220,0.0610,-0.025359,0.048163,-0.018894,-0.998339
152654.068000,-0.994086,-0.052447,-0.095093,0.049498,-0.998225,0.033112,-0.096661,0.028209,0.994918,1.6241,5.5469,177.1494,0.016600,1.010250,-0.083980,-0.061501,-1.010416,-0.056659,-0.000406,-0.001448,0.019086,0.028209,0.994918,-0.096661,0.002005,0.018980,-0.001513,0.1830,-0.1220,0.0610,-0.025527,0.048015,-0.015355,-0.998402
152654.143000,-0.993919,-0.054284,-0.095807,0.050714,-0.997939,0.039312,-0.097743,0.034215,0.994623,1.9702,5.6092,177.0791,0.017080,1.008780,-0.084470,-0.063643,-1.009156,-0.051170,-0.000611,0.004179,0.017682,0.034215,0.994623,-0.097743,-0.003532,0.017810,-0.000909,0.1830,-0.1220,0.0610,-0.026294,0.048469,-0.018413,-0.998309
152654.218000,-0.993838,-0.057054,-0.095027,0.053446,-0.997766,0.040092,-0.097102,0.034766,0.994667,2.0018,5.5723,176.9218,0.017080,1.009270,-0.083980,-0.066577,-1.009469,-0.050103,-0.000442,0.004753,0.018112,0.034766,0.994667,-0.097102,-0.004087,0.018248,-0.001065,0.3050,-0.0610,0.1220,-0.027673,0.048115,-0.018746,-0.998282
152654.293000,-0.993381,-0.059860,-0.098032,0.056022,-0.997569,0.041445,-0.100275,0.035679,0.994320,2.0551,5.7550,176.7722,0.018060,1.010740,-0.086420,-0.069971,-1.010853,-0.051678,-0.001402,0.004723,0.019828,0.035679,0.994320,-0.100275,-0.003920,0.020049,-0.000331,0.3660,-0.0610,0.1830,-0.029024,0.049668,-0.019317,-0.998157
152654.368000,-0.993307,-0.061868,-0.097540,0.058220,-0.997509,0.039823,-0.099761,0.033877,0.994435,1.9511,5.7254,176.6456,0.018060,1.009760,-0.086910,-0.071934,-1.009654,-0.054020,-0.000402,0.002796,0.018921,0.033877,0.994435,-0.099761,-0.002124,0.018967,-0.001325,0.2440,-0.1220,0.0610,-0.030077,0.049417,-0.018459,-0.998155
152654.443000,-0.993227,-0.064081,-0.096919,0.060291,-0.997316,0.041542,-0.099321,0.035417,0.994425,2.0398,5.7001,176.5263,0.018550,1.009270,-0.086420,-0.074724,-1.009033,-0.052035,-0.000320,0.003875,0.018386,0.035417,0.994425,-0.099321,-0.003193,0.018476,-0.001275,0.1830,-0.1220,0.0610,-0.031152,0.049153,-0.019276,-0.998119
152654.519000,-0.992869,-0.067595,-0.098199,0.063471,-0.996990,0.044535,-0.100914,0.037985,0.994170,2.1881,5.7918,176.3423,0.019040,1.009760,-0.087400,-0.078576,-1.009404,-0.050456,-0.000877,0.006030,0.018969,0.037985,0.994170,-0.100914,-0.005232,0.019213,-0.000661,0.2440,-0.1220,0.0610,-0.032832,0.049878,-0.020671,-0.998001
152654.594000,-0.992852,-0.067721,-0.098280,0.064327,-0.997231,0.037305,-0.100534,0.030717,0.994459,1.7692,5.7699,176.2930,0.019040,1.009270,-0.087890,-0.078615,-1.008530,-0.058316,-0.000437,-0.001445,0.018555,0.030717,0.994459,-0.100534,0.002040,0.018441,-0.001525,0.1830,-0.1220,0.0610,-0.033076,0.049800,-0.017038,-0.998066
152654.669000,-0.992430,-0.073062,-0.098720,0.068183,-0.996320,0.051932,-0.102151,0.044808,0.993759,2.5817,5.8630,176.0698,0.020500,1.009760,-0.088370,-0.085396,-1.009236,-0.044667,-0.000777,0.011512,0.019042,0.044808,0.993759,-0.102151,-0.010560,0.019598,-0.000389,0.2440,-0.1220,0.0610,-0.035389,0.050328,-0.024238,-0.997811
152654.744000,-0.992270,-0.074074,-0.099562,0.070478,-0.996744,0.039168,-0.102139,0.031848,0.994260,1.8347,5.8623,175.9373,0.020010,1.009760,-0.089350,-0.085757,-1.008562,-0.058722,-0.000681,-0.001276,0.019208,0.031848,0.994260,-0.102139,0.001934,0.019116,-0.001376,0.2440,-0.1220,0.0610,-0.036214,0.050531,-0.017791,-0.997907
152654.819000,-0.991858,-0.079074,-0.099828,0.074207,-0.995909,0.051568,-0.103497,0.043741,0.993667,2.5205,5.9406,175.7213,0.020500,1.009760,-0.089840,-0.091210,-1.008740,-0.047225,-0.000718,0.010392,0.019215,0.043741,0.993667,-0.103497,-0.009452,0.019701,-0.000505,0.2440,-0.1220,0.0610,-0.038409,0.050950,-0.023883,-0.997677
152654.894000,-0.992215,-0.073553,-0.100499,0.070970,-0.997056,0.029036,-0.102339,0.021677,0.994513,1.2487,5.8739,175.9088,0.021480,1.009270,-0.090330,-0.086469,-1.007397,-0.070155,-0.000713,-0.013181,0.018765,0.021677,0.994513,-0.102339,0.013601,0.018351,-0.002149,0.1830,-0.1830,0.0610,-0.036204,0.050812,-0.012704,-0.997971
152654.969000,-0.991822,-0.078451,-0.100669,0.073127,-0.995775,0.055541,-0.104601,0.047726,0.993368,2.7506,6.0042,175.7832,0.021970,1.009270,-0.090820,-0.091826,-1.008443,-0.044348,-0.000654,0.012946,0.018829,0.047726,0.993368,-0.104601,-0.011941,0.019489,-0.000375,0.1830,-0.1830,0.0610,-0.037985,0.051440,-0.025878,-0.997618
152655.044000,-0.991965,-0.076077,-0.101084,0.072850,-0.996720,0.035246,-0.103434,0.027599,0.994253,1.5900,5.9369,175.7997,0.022460,1.009270,-0.091300,-0.089833,-1.007541,-0.065244,-0.000538,-0.008155,0.018938,0.027599,0.994253,-0.103434,0.008692,0.018596,-0.002019,0.1830,-0.1830,0.0610,-0.037312,0.051239,-0.015745,-0.997865
152655.119000,-0.991693,-0.079056,-0.101462,0.074155,-0.995932,0.051199,-0.105097,0.043250,0.993521,2.4926,6.0327,175.7236,0.022460,1.008780,-0.091790,-0.092710,-1.007710,-0.049926,-0.000529,0.007829,0.018512,0.043250,0.993521,-0.105097,-0.006955,0.018847,-0.000841,0.1220,-0.1220,0.0000,-0.038393,0.051762,-0.023668,-0.997640
152655.194000,-0.991766,-0.077381,-0.102040,0.073764,-0.996522,0.038762,-0.104684,0.030916,0.994025,1.7814,6.0090,175.7464,0.022940,1.008300,-0.092280,-0.091358,-1.006678,-0.062957,-0.000553,-0.005281,0.018117,0.030916,0.994025,-0.104684,0.005866,0.017860,-0.001738,0.1830,-0.1220,0.0610,-0.037870,0.051796,-0.017458,-0.997787
152655.269000,-0.991553,-0.078079,-0.103564,0.073479,-0.996164,0.047514,-0.106877,0.039503,0.993487,2.2770,6.1353,175.7618,0.023430,1.009270,-0.093750,-0.092325,-1.008132,-0.055775,-0.000830,0.003006,0.019256,0.039503,0.993487,-0.106877,-0.002169,0.019359,-0.001014,0.2440,-0.1220,0.0610,-0.037979,0.052734,-0.021805,-0.997648
152655.344000,-0.991730,-0.076348,-0.103165,0.072455,-0.996529,0.040979,-0.105935,0.033165,0.993820,1.9113,6.0811,175.8215,0.023920,1.008780,-0.093750,-0.091069,-1.007388,-0.062248,-0.000330,-0.004018,0.018777,0.033165,0.993820,-0.105935,0.004652,0.018530,-0.001953,0.1830,-0.1220,0.0610,-0.037284,0.052393,-0.018578,-0.997757
152655.419000,-0.991620,-0.077026,-0.103718,0.072428,-0.996247,0.047398,-0.106979,0.039488,0.993477,2.2762,6.1412,175.8225,0.023920,1.009270,-0.094230,-0.091687,-1.008216,-0.056320,-0.000503,0.002459,0.019320,0.039488,0.993477,-0.106979,-0.001649,0.019362,-0.001389,0.1220,-0.1830,0.0000,-0.037451,0.052798,-0.021772,-0.997665
152655.495000,-0.991425,-0.078179,-0.104713,0.073507,-0.996150,0.047767,-0.108045,0.039660,0.993355,2.2864,6.2026,175.7597,0.024900,1.008780,-0.095210,-0.093583,-1.007614,-0.057259,-0.000639,0.001626,0.018966,0.039660,0.993355,-0.108045,-0.000817,0.018984,-0.001296,0.1220,-0.1830,0.0000,-0.038012,0.053317,-0.021909,-0.997613
152655.570000,-0.991277,-0.080573,-0.104299,0.075615,-0.995850,0.050653,-0.107948,0.042324,0.993255,2.4400,6.1970,175.6379,0.024900,1.008780,-0.095210,-0.096033,-1.007533,-0.054560,-0.000329,0.004328,0.018958,0.042324,0.993255,-0.107948,-0.003481,0.019084,-0.001393,0.1220,-0.1220,0.0000,-0.039143,0.053192,-0.023302,-0.997545
152655.645000,-0.991157,-0.082048,-0.104291,0.077371,-0.995839,0.048142,-0.107807,0.039647,0.993381,2.2855,6.1889,175.5365,0.024900,1.008780,-0.095210,-0.097519,-1.007240,-0.057269,-0.000391,0.001595,0.018966,0.039647,0.993381,-0.107807,-0.000804,0.018958,-0.001534,0.1220,-0.1830,0.0000,-0.039953,0.053155,-0.022001,-0.997544
152655.720000,-0.991169,-0.081155,-0.104867,0.076817,-0.996040,0.044762,-0.108085,0.036311,0.993478,2.0932,6.2049,175.5683,0.025390,1.008780,-0.095700,-0.096997,-1.007118,-0.061191,-0.000495,-0.002317,0.019029,0.036311,0.993478,-0.108085,0.003039,0.018853,-0.001744,0.1220,-0.1830,0.0000,-0.039589,0.053367,-0.020317,-0.997583
152655.795000,-0.990913,-0.082975,-0.105862,0.077789,-0.995601,0.052225,-0.109730,0.043515,0.993008,2.5092,6.2998,175.5114,0.025870,1.008300,-0.096670,-0.099065,-1.006901,-0.054956,-0.000639,0.004551,0.018669,0.043515,0.993008,-0.109730,-0.003666,0.018844,-0.001061,0.1220,-0.1220,0.0000,-0.040294,0.054037,-0.023997,-0.997437
152655.870000,-0.990880,-0.083784,-0.105535,0.079058,-0.995704,0.048196,-0.109120,0.039413,0.993247,2.2724,6.2646,175.4383,0.025870,1.007810,-0.096670,-0.099870,-1.006095,-0.059119,-0.000295,0.000316,0.018196,0.039413,0.993247,-0.109120,0.000427,0.018120,-0.001668,0.1220,-0.1220,0.0000,-0.040814,0.053800,-0.021958,-0.997476
152655.945000,-0.990684,-0.085595,-0.105923,0.080430,-0.995397,0.052116,-0.109896,0.043111,0.993008,2.4859,6.3093,175.3585,0.026360,1.009270,-0.097160,-0.102211,-1.007568,-0.055867,-0.000487,0.003644,0.019695,0.043111,0.993008,-0.109896,-0.002737,0.019799,-0.001389,0.1220,-0.1220,0.0000,-0.041615,0.054096,-0.023869,-0.997383
152656.020000,-0.990833,-0.083949,-0.105840,0.079607,-0.995828,0.044611,-0.109144,0.035777,0.993382,2.0626,6.2660,175.4065,0.026850,1.008300,-0.097160,-0.100967,-1.006290,-0.063374,-0.000263,-0.004398,0.018745,0.035777,0.993382,-0.109144,0.005072,0.018452,-0.002135,0.0610,-0.1220,0.0000,-0.040992,0.053881,-0.020147,-0.997502
152656.095000,-0.990773,-0.084612,-0.105871,0.079429,-0.995470,0.052255,-0.109813,0.043363,0.993006,2.5004,6.3045,175.4165,0.027340,1.008300,-0.097160,-0.102115,-1.006638,-0.055759,-0.000369,0.002879,0.018759,0.043363,0.993006,-0.109813,-0.002022,0.018817,-0.001466,0.1220,-0.1830,0.0000,-0.041117,0.054062,-0.023967,-0.997403
152656.170000,-0.990821,-0.083080,-0.106636,0.078627,-0.995874,0.045307,-0.109960,0.036506,0.993265,2.1049,6.3130,175.4628,0.027340,1.007810,-0.097650,-0.100405,-1.005926,-0.063207,-0.000542,-0.004142,0.018329,0.036506,0.993265,-0.109960,0.004840,0.018076,-0.001804,0.1220,-0.1220,0.0000,-0.040528,0.054285,-0.020505,-0.997492
152656.245000,-0.990311,-0.086611,-0.108550,0.080719,-0.995074,0.057552,-0.113000,0.048232,0.992424,2.7824,6.4883,175.3402,0.027340,1.008780,-0.099600,-0.103635,-1.007336,-0.053279,-0.000866,0.007868,0.019495,0.048232,0.992424,-0.113000,-0.006814,0.019894,-0.000710,0.1220,-0.1220,0.0000,-0.041949,0.055542,-0.026520,-0.997222
152656.320000,-0.990562,-0.084385,-0.108007,0.080064,-0.995829,0.043751,-0.111248,0.034691,0.993187,2.0004,6.3873,175.3790,0.027830,1.008780,-0.099600,-0.101936,-1.006702,-0.067022,-0.000236,-0.006551,0.019513,0.034691,0.993187,-0.111248,0.007220,0.019119,-0.002462,0.1220,-0.1220,0.0000,-0.041218,0.054954,-0.019661,-0.997444
152656.395000,-0.990465,-0.085536,-0.107997,0.079865,-0.995243,0.055799,-0.112256,0.046642,0.992584,2.6904,6.4454,175.3900,0.028800,1.008300,-0.099600,-0.104015,-1.006761,-0.055065,-0.000316,0.004703,0.019069,0.046642,0.992584,-0.112256,-0.003765,0.019225,-0.001452,0.0610,-0.1220,0.0000,-0.041463,0.055213,-0.025680,-0.997283
152656.471000,-0.990666,-0.083290,-0.107903,0.078820,-0.995870,0.045052,-0.111210,0.036126,0.993140,2.0833,6.3851,175.4510,0.028800,1.005850,-0.099120,-0.101613,-1.003892,-0.065305,-0.000324,-0.006089,0.016590,0.036126,0.993140,-0.111210,0.006691,0.016236,-0.002004,0.1220,-0.1220,0.0000,-0.040631,0.054918,-0.020346,-0.997456
152656.546000,-0.990447,-0.083015,-0.110107,0.077565,-0.995583,0.052895,-0.114012,0.043849,0.992511,2.5297,6.5466,175.5221,0.029290,1.008780,-0.101070,-0.101626,-1.007399,-0.059418,-0.000991,0.001383,0.019739,0.043849,0.992511,-0.114012,-0.000429,0.019773,-0.001162,0.2440,-0.1220,0.0610,-0.040253,0.056180,-0.024251,-0.997314
152656.621000,-0.990411,-0.083535,-0.110034,0.078155,-0.995566,0.052339,-0.113918,0.043237,0.992549,2.4943,6.5412,175.4880,0.029290,1.008300,-0.101560,-0.102062,-1.006856,-0.060544,-0.000413,0.000686,0.019326,0.043237,0.992549,-0.113918,0.000187,0.019264,-0.001739,0.1830,-0.1220,0.0000,-0.040531,0.056139,-0.023958,-0.997312
152656.696000,-0.990369,-0.083489,-0.110448,0.078207,-0.995615,0.051325,-0.114249,0.042193,0.992556,2.4341,6.5603,175.4849,0.029290,1.008780,-0.102050,-0.101958,-1.007304,-0.062074,-0.000403,-0.000384,0.019859,0.042193,0.992556,-0.114249,0.001254,0.019736,-0.001900,0.0610,-0.1220,-0.0610,-0.040533,0.056325,-0.023442,-0.997314
152656.771000,-0.990352,-0.083775,-0.110387,0.078320,-0.995525,0.052870,-0.114323,0.043714,0.992481,2.5220,6.5646,175.4783,0.029780,1.007810,-0.102050,-0.102657,-1.006363,-0.060632,-0.000295,0.000648,0.018914,0.043714,0.992481,-0.114323,0.000207,0.018838,-0.001820,0.0610,-0.1830,-0.0610,-0.040634,0.056330,-0.024212,-0.997291
152656.846000,-0.990449,-0.082571,-0.110419,0.077441,-0.995744,0.049973,-0.114076,0.040945,0.992628,2.3621,6.5503,175.5292,0.030270,1.007810,-0.102050,-0.101929,-1.006276,-0.063486,-0.000302,-0.002681,0.018921,0.040945,0.992628,-0.114076,0.003469,0.018681,-0.002067,0.0610,-0.1830,-0.0610,-0.040109,0.056273,-0.022790,-0.997349
152656.921000,-0.990409,-0.083237,-0.110280,0.077523,-0.995465,0.055135,-0.114369,0.046056,0.992370,2.6572,6.5672,175.5244,0.030760,1.008300,-0.102050,-0.103139,-1.006969,-0.058351,-0.000286,0.002068,0.019416,0.046056,0.992370,-0.114369,-0.001140,0.019413,-0.001777,0.0610,-0.1830,0.0000,-0.040300,0.056316,-0.025367,-0.997277
152656.996000,-0.990227,-0.082707,-0.112296,0.077427,-0.995714,0.050592,-0.115999,0.041403,0.992386,2.3890,6.6613,175.5290,0.030270,1.007810,-0.103510,-0.101703,-1.006383,-0.064507,-0.000798,-0.002204,0.019101,0.041403,0.992386,-0.115999,0.003051,0.018934,-0.001596,0.0610,-0.1830,-0.0610,-0.040142,0.057229,-0.023061,-0.997287
152657.071000,-0.990316,-0.083318,-0.111051,0.077491,-0.995431,0.055794,-0.115193,0.046649,0.992247,2.6917,6.6147,175.5258,0.031250,1.006830,-0.103020,-0.103394,-1.005556,-0.058854,-0.000013,0.002096,0.018097,0.046649,0.992247,-0.115193,-0.001241,0.018075,-0.001909,0.0610,-0.1830,-0.0610,-0.040313,0.056717,-0.025682,-0.997245
152657.146000,-0.990057,-0.084575,-0.112405,0.078875,-0.995408,0.054234,-0.116476,0.044828,0.992181,2.5870,6.6887,175.4450,0.030270,1.008780,-0.104000,-0.103597,-1.007401,-0.061491,-0.000633,0.001304,0.020119,0.044828,0.992181,-0.116476,-0.000343,0.020104,-0.001613,0.0610,-0.1830,-0.0610,-0.040977,0.057381,-0.024835,-0.997202
152657.221000,-0.990170,-0.083647,-0.112101,0.078235,-0.995586,0.051846,-0.115943,0.042566,0.992343,2.4562,6.6580,175.4824,0.031250,1.007810,-0.104000,-0.103585,-1.006309,-0.063929,-0.000247,-0.002059,0.019184,0.042566,0.992343,-0.115943,0.002887,0.018958,-0.002140,0.0610,-0.1830,-0.0610,-0.040582,0.057168,-0.023668,-0.997259
152657.296000,-0.989863,-0.085579,-0.113351,0.079384,-0.995150,0.058089,-0.117773,0.048502,0.991855,2.7995,6.7636,175.4149,0.031250,1.007320,-0.104980,-0.105239,-1.006052,-0.058948,-0.000621,0.004017,0.018817,0.048502,0.991855,-0.117773,-0.003031,0.018968,-0.001282,0.0610,-0.1830,-0.0610,-0.041360,0.057949,-0.026725,-0.997104
152657.371000,-0.989909,-0.085604,-0.112925,0.079957,-0.995355,0.053630,-0.116991,0.044060,0.992155,2.5427,6.7185,175.3821,0.031730,1.007320,-0.104980,-0.105785,-1.005734,-0.063486,-0.000226,-0.001049,0.018836,0.044060,0.992155,-0.116991,0.001894,0.018657,-0.002064,0.0610,-0.1830,-0.0610,-0.041507,0.057642,-0.024492,-0.997173
152657.446000,-0.989955,-0.084944,-0.113022,0.079247,-0.995392,0.053985,-0.117087,0.044486,0.992125,2.5674,6.7240,175.4232,0.032220,1.006830,-0.104980,-0.105556,-1.005305,-0.063136,-0.000276,-0.001115,0.018364,0.044486,0.992125,-0.117087,0.001950,0.018191,-0.001966,0.0000,-0.1830,-0.0610,-0.041164,0.057690,-0.024688,-0.997180
152657.522000,-0.989894,-0.086075,-0.112702,0.079843,-0.995078,0.058689,-0.117199,0.049097,0.991894,2.8338,6.7305,175.3886,0.033200,1.007810,-0.104980,-0.107780,-1.006360,-0.058539,-0.000199,0.002636,0.019351,0.049097,0.991894,-0.117199,-0.001656,0.019371,-0.001860,0.0000,-0.1830,-0.0610,-0.041600,0.057642,-0.027025,-0.997104
152657.597000,-0.989957,-0.085172,-0.112835,0.079790,-0.995486,0.051388,-0.116703,0.041869,0.992284,2.4161,6.7018,175.3919,0.031730,1.004880,-0.104490,-0.105208,-1.003182,-0.065313,-0.000330,-0.003326,0.016366,0.041869,0.992284,-0.116703,0.004024,0.016106,-0.001849,0.0610,-0.1830,-0.0610,-0.041356,0.057545,-0.023380,-0.997212
152657.672000,-0.989523,-0.086398,-0.115671,0.079834,-0.994987,0.060226,-0.120295,0.050360,0.991460,2.9078,6.9091,175.3874,0.033200,1.007810,-0.106930,-0.107556,-1.006547,-0.059257,-0.001348,0.003989,0.019591,0.050360,0.991460,-0.120295,-0.002866,0.019820,-0.000704,0.4270,-0.1220,0.1830,-0.041683,0.059170,-0.027730,-0.996992
152657.747000,-0.989616,-0.084230,-0.116471,0.078404,-0.995472,0.053735,-0.120469,0.044045,0.991739,2.5429,6.9192,175.4701,0.035150,1.007810,-0.108390,-0.107048,-1.006315,-0.067340,-0.000769,-0.004534,0.019825,0.044045,0.991739,-0.120469,0.005451,0.019508,-0.001983,0.3660,-0.1220,0.1830,-0.040777,0.059407,-0.024516,-0.997099
152657.822000,-0.989332,-0.088848,-0.115446,0.081401,-0.994379,0.067703,-0.120813,0.057584,0.991004,3.3255,6.9390,175.2964,0.034170,1.006830,-0.107910,-0.110803,-1.005695,-0.053090,-0.000275,0.010266,0.018732,0.057584,0.991004,-0.120813,-0.009105,0.019290,-0.001155,0.1220,-0.1830,0.0000,-0.042698,0.059252,-0.031421,-0.996834
152657.897000,-0.989487,-0.087017,-0.115517,0.081460,-0.995319,0.051994,-0.119501,0.042037,0.991944,2.4267,6.8633,175.2937,0.035150,1.007320,-0.107910,-0.109969,-1.005353,-0.068896,-0.000376,-0.006625,0.019270,0.042037,0.991944,-0.119501,0.007437,0.018814,-0.002471,0.1220,-0.1830,0.0000,-0.042242,0.058926,-0.023576,-0.997089
152657.972000,-0.989130,-0.089632,-0.116571,0.082463,-0.994476,0.064944,-0.121748,0.054626,0.991057,3.1549,6.9930,175.2343,0.034660,1.007320,-0.108880,-0.111879,-1.005968,-0.057101,-0.000619,0.006770,0.019381,0.054626,0.991057,-0.121748,-0.005618,0.019719,-0.001189,0.0610,-0.1830,0.0000,-0.043161,0.059769,-0.029988,-0.996828
152658.047000,-0.989439,-0.086289,-0.116471,0.080919,-0.995462,0.050081,-0.120264,0.040128,0.991931,2.3166,6.9074,175.3246,0.035150,1.006830,-0.108880,-0.108976,-1.004869,-0.071827,-0.000304,-0.008618,0.018897,0.040128,0.991931,-0.120264,0.009363,0.018349,-0.002670,0.0610,-0.1830,-0.0610,-0.041923,0.059356,-0.022618,-0.997100
152658.122000,-0.988996,-0.089747,-0.117611,0.082043,-0.994252,0.068790,-0.123109,0.058384,0.990674,3.3727,7.0716,175.2578,0.035150,1.006830,-0.109860,-0.112202,-1.005716,-0.054380,-0.000720,0.010098,0.019010,0.058384,0.990674,-0.123109,-0.008866,0.019612,-0.000800,0.0610,-0.1830,0.0000,-0.043088,0.060377,-0.031897,-0.996735
152658.197000,-0.989157,-0.088848,-0.116941,0.082827,-0.995023,0.055392,-0.121281,0.045105,0.991593,2.6045,6.9660,175.2135,0.036620,1.006830,-0.109860,-0.112831,-1.004872,-0.067964,-0.000106,-0.005046,0.019088,0.045105,0.991593,-0.121281,0.005891,0.018661,-0.002628,0.0610,-0.1830,-0.0610,-0.043049,0.059737,-0.025201,-0.996967
152658.272000,-0.988860,-0.091779,-0.117189,0.084295,-0.994165,0.067308,-0.122683,0.056679,0.990826,3.2740,7.0470,175.1276,0.036130,1.006340,-0.109860,-0.115214,-1.004817,-0.056246,-0.000444,0.007322,0.018578,0.056679,0.990826,-0.122683,-0.006185,0.018953,-0.001223,0.0610,-0.1830,0.0000,-0.044163,0.060165,-0.031099,-0.996726
152658.347000,-0.989211,-0.086796,-0.118018,0.081714,-0.995535,0.047243,-0.121591,0.037090,0.991887,2.1415,6.9839,175.2778,0.035640,1.007320,-0.110350,-0.109663,-1.005124,-0.076427,-0.000573,-0.012224,0.019546,0.037090,0.991887,-0.121591,0.012944,0.018878,-0.002808,0.0610,-0.1830,-0.0610,-0.042251,0.060078,-0.021145,-0.997075
152658.422000,-0.988960,-0.090094,-0.117646,0.082237,-0.994150,0.070025,-0.123266,0.059577,0.990584,3.4418,7.0806,175.2465,0.036130,1.006340,-0.110350,-0.113414,-1.005209,-0.053810,-0.000327,0.010268,0.018617,0.059577,0.990584,-0.123266,-0.009069,0.019199,-0.001127,0.0610,-0.1830,-0.0610,-0.043225,0.060427,-0.032507,-0.996706
152658.498000,-0.989266,-0.085656,-0.118385,0.080343,-0.995565,0.048951,-0.122053,0.038914,0.991760,2.2470,7.0106,175.3569,0.037100,1.006830,-0.110830,-0.109822,-1.004809,-0.075265,-0.000476,-0.011858,0.019172,0.038914,0.991760,-0.122053,0.012592,0.018490,-0.002821,0.0000,-0.1830,-0.0610,-0.041622,0.060286,-0.022031,-0.997070
152658.573000,-0.989090,-0.087314,-0.118644,0.079702,-0.994533,0.067465,-0.123886,0.057273,0.990642,3.3088,7.1164,175.3930,0.037590,1.006340,-0.111320,-0.111841,-1.005353,-0.057300,-0.000351,0.006413,0.018817,0.057273,0.990642,-0.123886,-0.005270,0.019115,-0.001473,0.0000,-0.1830,-0.0610,-0.041889,0.060828,-0.031285,-0.996778
152658.648000,-0.989219,-0.085913,-0.118597,0.079778,-0.995264,0.055548,-0.122808,0.045488,0.991387,2.6271,7.0542,175.3892,0.037100,1.006830,-0.111320,-0.109998,-1.005285,-0.069119,-0.000229,-0.005159,0.019292,0.045488,0.991387,-0.122808,0.006031,0.018867,-0.002554,0.0000,-0.1830,-0.0610,-0.041548,0.060534,-0.025336,-0.996979
152658.723000,-0.989041,-0.087908,-0.118614,0.080412,-0.994535,0.066582,-0.123819,0.056314,0.990706,3.2533,7.1125,175.3519,0.037590,1.005850,-0.111320,-0.112396,-1.004743,-0.058296,-0.000302,0.005410,0.018340,0.056314,0.990706,-0.123819,-0.004321,0.018566,-0.001537,0.0000,-0.1830,-0.0610,-0.042216,0.060804,-0.030823,-0.996780
152658.798000,-0.989071,-0.086801,-0.119182,0.080501,-0.995140,0.056708,-0.123526,0.046494,0.991252,2.6855,7.0956,175.3469,0.037590,1.006340,-0.111810,-0.111205,-1.004764,-0.068686,-0.000390,-0.004633,0.018891,0.046494,0.991252,-0.123526,0.005522,0.018509,-0.002321,0.0000,-0.2440,-0.0610,-0.041954,0.060864,-0.025880,-0.996928
152658.873000,-0.988879,-0.088458,-0.119552,0.080893,-0.994487,0.066725,-0.124795,0.056312,0.990583,3.2536,7.1689,175.3235,0.038080,1.005850,-0.112300,-0.113207,-1.004717,-0.059353,-0.000378,0.004900,0.018487,0.056312,0.990583,-0.124795,-0.003799,0.018685,-0.001536,0.0000,-0.1830,-0.0610,-0.042476,0.061287,-0.030860,-0.996738
152658.948000,-0.988961,-0.086535,-0.120279,0.080332,-0.995221,0.055507,-0.124508,0.045232,0.991187,2.6128,7.1523,175.3562,0.037590,1.005370,-0.112790,-0.110608,-1.003807,-0.071001,-0.000425,-0.005967,0.018059,0.045232,0.991187,-0.124508,0.006793,0.017620,-0.002308,0.0000,-0.1830,-0.0610,-0.041846,0.061386,-0.025263,-0.996916
152659.023000,-0.988884,-0.088144,-0.119743,0.080505,-0.994486,0.067208,-0.125007,0.056821,0.990527,3.2831,7.1811,175.3458,0.038570,1.006830,-0.112790,-0.113382,-1.005753,-0.059334,-0.000228,0.004940,0.019530,0.056821,0.990527,-0.125007,-0.003783,0.019705,-0.001819,0.0610,-0.1830,0.0000,-0.042301,0.061388,-0.031109,-0.996732
152659.098000,-0.988831,-0.086702,-0.121228,0.080155,-0.995100,0.057883,-0.125652,0.047520,0.990936,2.7455,7.2184,175.3657,0.038570,1.005850,-0.113760,-0.111557,-1.004415,-0.069778,-0.000594,-0.004609,0.018697,0.047520,0.990936,-0.125652,0.005527,0.018332,-0.002132,0.0000,-0.1830,-0.0610,-0.041846,0.061915,-0.026434,-0.996853
152659.173000,-0.988883,-0.087773,-0.120029,0.080237,-0.994572,0.066249,-0.125193,0.055882,0.990557,3.2289,7.1919,175.3612,0.039060,1.006830,-0.113280,-0.113402,-1.005735,-0.060837,-0.000059,0.003457,0.019617,0.055882,0.990557,-0.125193,-0.002337,0.019667,-0.002120,0.0610,-0.1830,-0.0610,-0.042140,0.061506,-0.030632,-0.996746
152659.248000,-0.988718,-0.088392,-0.120928,0.081253,-0.994716,0.062753,-0.125836,0.052219,0.990676,3.0173,7.2290,175.3020,0.039060,1.006340,-0.113760,-0.113815,-1.004988,-0.065064,-0.000494,-0.000284,0.019204,0.052219,0.990676,-0.125836,0.001329,0.019067,-0.001951,0.0000,-0.1830,-0.0610,-0.042549,0.061892,-0.028837,-0.996758
152659.323000,-0.988688,-0.088286,-0.121254,0.081049,-0.994693,0.063385,-0.126206,0.052840,0.990596,3.0534,7.2504,175.3136,0.039550,1.005850,-0.114250,-0.114052,-1.004548,-0.065018,-0.000326,-0.000184,0.018803,0.052840,0.990596,-0.126206,0.001205,0.018654,-0.002066,0.0000,-0.1830,-0.0610,-0.042472,0.062067,-0.029151,-0.996742
152659.398000,-0.988779,-0.088225,-0.120547,0.081036,-0.994699,0.063296,-0.125492,0.052818,0.990688,3.0518,7.2092,175.3148,0.039550,1.005850,-0.113760,-0.114134,-1.004514,-0.064537,-0.000078,-0.000219,0.018737,0.052818,0.990688,-0.125492,0.001214,0.018558,-0.002292,0.0000,-0.1830,-0.0610,-0.042452,0.061709,-0.029123,-0.996766
152659.473000,-0.988596,-0.088300,-0.121988,0.081011,-0.994689,0.063486,-0.126946,0.052880,0.990499,3.0560,7.2931,175.3154,0.039550,1.006340,-0.114740,-0.113962,-1.005076,-0.065456,-0.000656,-0.000108,0.019351,0.052880,0.990499,-0.126946,0.001189,0.019240,-0.001817,0.0610,-0.1830,-0.0610,-0.042467,0.062438,-0.029187,-0.996718
152659.549000,-0.988823,-0.086115,-0.121710,0.079392,-0.995093,0.059055,-0.126198,0.048732,0.990807,2.8158,7.2500,175.4096,0.039550,1.005850,-0.114740,-0.111762,-1.004550,-0.069659,-0.000171,-0.004415,0.018859,0.048732,0.990807,-0.126198,0.005327,0.018446,-0.002561,0.0000,-0.1830,-0.0610,-0.041508,0.062174,-0.027032,-0.996835
152659.624000,-0.988814,-0.086399,-0.121584,0.078730,-0.994673,0.066535,-0.126685,0.056218,0.990349,3.2490,7.2780,175.4477,0.041010,1.006340,-0.114740,-0.113548,-1.005385,-0.062253,-0.000239,0.001802,0.019396,0.056218,0.990349,-0.126685,-0.000681,0.019358,-0.002079,0.0000,-0.1830,-0.0610,-0.041418,0.062271,-0.030789,-0.996724
152659.699000,-0.988683,-0.086012,-0.122917,0.078685,-0.994889,0.063280,-0.127731,0.052892,0.990397,3.0570,7.3385,175.4497,0.041010,1.005850,-0.115720,-0.112837,-1.004805,-0.066646,-0.000562,-0.001615,0.019047,0.052892,0.990397,-0.127731,0.002663,0.018831,-0.002004,0.0000,-0.1830,-0.0610,-0.041309,0.062867,-0.029138,-0.996741
152659.774000,-0.988612,-0.086489,-0.123152,0.078866,-0.994732,0.065489,-0.128168,0.055031,0.990225,3.1809,7.3637,175.4389,0.040520,1.005850,-0.116210,-0.112742,-1.004966,-0.064914,-0.000314,0.001040,0.019098,0.055031,0.990225,-0.128168,0.000044,0.019018,-0.002055,0.0000,-0.1830,-0.0610,-0.041476,0.063039,-0.030230,-0.996691
152659.849000,-0.988824,-0.084922,-0.122540,0.077843,-0.995070,0.061457,-0.127155,0.051231,0.990559,2.9607,7.3052,175.4988,0.041010,1.005850,-0.115720,-0.111790,-1.004810,-0.068311,-0.000103,-0.003355,0.019042,0.051231,0.990559,-0.127155,0.004323,0.018669,-0.002581,0.0000,-0.1830,-0.0610,-0.040822,0.062624,-0.028263,-0.996801
152659.924000,-0.988656,-0.085928,-0.123190,0.078062,-0.994673,0.067325,-0.128319,0.056944,0.990097,3.2917,7.3724,175.4854,0.041010,1.006340,-0.116210,-0.112702,-1.005601,-0.063016,-0.000414,0.002532,0.019593,0.056944,0.990097,-0.128319,-0.001367,0.019621,-0.001907,0.0000,-0.1830,-0.0610,-0.041135,0.063087,-0.031171,-0.996673
152659.999000,-0.988715,-0.085311,-0.123143,0.077971,-0.994947,0.063246,-0.127917,0.052931,0.990371,3.0593,7.3492,175.4909,0.041500,1.005370,-0.116210,-0.112490,-1.004404,-0.067184,-0.000252,-0.002122,0.018656,0.052931,0.990371,-0.127917,0.003121,0.018373,-0.002303,0.0000,-0.2440,-0.1220,-0.040954,0.062970,-0.029139,-0.996749
152660.074000,-0.988685,-0.084737,-0.123778,0.077215,-0.994935,0.064361,-0.128605,0.054075,0.990220,3.1258,7.3890,175.5344,0.041500,1.005370,-0.116690,-0.111778,-1.004584,-0.066520,-0.000393,-0.000949,0.018724,0.054075,0.990220,-0.128605,0.001990,0.018528,-0.002092,0.0000,-0.2440,-0.0610,-0.040621,0.063303,-0.029706,-0.996725
152660.149000,-0.988810,-0.083592,-0.123561,0.076166,-0.995061,0.063660,-0.128272,0.053536,0.990293,3.0945,7.3697,175.5953,0.041990,1.005850,-0.116690,-0.111183,-1.005112,-0.067094,-0.000190,-0.001996,0.019211,0.053536,0.990293,-0.128272,0.003030,0.018920,-0.002429,0.0000,-0.1830,-0.0610,-0.040069,0.063163,-0.029394,-0.996765
152660.224000,-0.988667,-0.084213,-0.124281,0.076283,-0.994816,0.067250,-0.129300,0.057008,0.989965,3.2958,7.4292,175.5880,0.041990,1.005370,-0.117180,-0.111616,-1.004835,-0.064120,-0.000433,0.001553,0.018806,0.057008,0.989965,-0.129300,-0.000436,0.018776,-0.001885,0.0000,-0.1830,-0.0610,-0.040258,0.063607,-0.031168,-0.996675
152660.299000,-0.988652,-0.083778,-0.124696,0.076224,-0.995024,0.064167,-0.129451,0.053934,0.990118,3.1180,7.4379,175.5913,0.041990,1.004880,-0.117670,-0.111027,-1.004229,-0.067745,-0.000290,-0.001633,0.018392,0.053934,0.990118,-0.129451,0.002641,0.018141,-0.002219,-0.0610,-0.1830,-0.1220,-0.040132,0.063746,-0.029623,-0.996719
152660.374000,-0.988815,-0.082983,-0.123931,0.075278,-0.995001,0.065615,-0.128757,0.055552,0.990119,3.2113,7.3977,175.6465,0.042960,1.005850,-0.117180,-0.111426,-1.005277,-0.065677,-0.000126,-0.000926,0.019312,0.055552,0.990119,-0.128757,0.002004,0.019076,-0.002432,0.0610,-0.1830,-0.0610,-0.039695,0.063379,-0.030391,-0.996737
152660.449000,-0.988743,-0.082572,-0.124779,0.074804,-0.995030,0.065717,-0.129586,0.055643,0.990006,3.2169,7.4456,175.6735,0.042960,1.005370,-0.117670,-0.110809,-1.004893,-0.066119,-0.000430,-0.000833,0.018908,0.055643,0.990006,-0.129586,0.001917,0.018717,-0.002087,0.0000,-0.1830,-0.0610,-0.039473,0.063801,-0.030440,-0.996717
152660.525000,-0.988497,-0.084076,-0.125720,0.075734,-0.994687,0.069731,-0.130915,0.059408,0.989612,3.4354,7.5225,175.6188,0.042960,1.005370,-0.118650,-0.112077,-1.005048,-0.063315,-0.000537,0.003013,0.019039,0.059408,0.989612,-0.130915,-0.001820,0.019119,-0.001733,0.0000,-0.1830,-0.0610,-0.040089,0.064378,-0.032395,-0.996594
152660.600000,-0.988545,-0.084215,-0.125243,0.076411,-0.994899,0.065865,-0.130151,0.055540,0.989937,3.2112,7.4783,175.5800,0.042960,1.005850,-0.118650,-0.112315,-1.005251,-0.067182,-0.000114,-0.000968,0.019515,0.055540,0.989937,-0.130151,0.002056,0.019269,-0.002501,0.0000,-0.1830,-0.0610,-0.040291,0.064062,-0.030453,-0.996667
152660.675000,-0.988357,-0.085425,-0.125910,0.077043,-0.994567,0.070012,-0.131207,0.059497,0.989568,3.4407,7.5393,175.5428,0.043450,1.005850,-0.119140,-0.113868,-1.005379,-0.063753,-0.000443,0.002612,0.019597,0.059497,0.989568,-0.131207,-0.001394,0.019631,-0.001932,0.0000,-0.1830,-0.0610,-0.040757,0.064501,-0.032489,-0.996555
152660.750000,-0.988517,-0.083586,-0.125891,0.076138,-0.995114,0.062863,-0.130530,0.052556,0.990050,3.0387,7.5002,175.5956,0.043450,1.005370,-0.119140,-0.111987,-1.004639,-0.070787,-0.000238,-0.004535,0.019118,0.052556,0.990050,-0.130530,0.005537,0.018673,-0.002606,0.0000,-0.1830,-0.0610,-0.040063,0.064317,-0.028950,-0.996705
152660.825000,-0.988729,-0.080995,-0.125915,0.073409,-0.995261,0.063776,-0.130484,0.053814,0.989989,3.1114,7.4975,175.7538,0.043940,1.006340,-0.119140,-0.109952,-1.005943,-0.069525,-0.000238,-0.003708,0.020093,0.053814,0.989989,-0.130484,0.004791,0.019685,-0.002659,0.0000,-0.1830,-0.1220,-0.038727,0.064309,-0.029494,-0.996742
152660.900000,-0.988887,-0.078454,-0.126285,0.070905,-0.995478,0.063207,-0.130673,0.053550,0.989978,3.0963,7.5085,175.8988,0.043940,1.005370,-0.119140,-0.107281,-1.005239,-0.069850,-0.000325,-0.004004,0.019138,0.053550,0.989978,-0.130673,0.005036,0.018734,-0.002463,0.0000,-0.1830,-0.0610,-0.037460,0.064447,-0.029283,-0.996788
152660.975000,-0.988517,-0.081486,-0.127259,0.072365,-0.994575,0.074728,-0.132658,0.064660,0.989050,3.7405,7.6232,175.8131,0.044430,1.004880,-0.120110,-0.110519,-1.005189,-0.059713,-0.000563,0.006862,0.018794,0.064660,0.989050,-0.132658,-0.005564,0.019172,-0.001440,0.0000,-0.1830,-0.0610,-0.038598,0.065207,-0.034969,-0.996512
152661.050000,-0.989016,-0.076045,-0.126746,0.069611,-0.996087,0.054454,-0.130391,0.045033,0.990439,2.6033,7.4922,175.9740,0.043940,1.005370,-0.119620,-0.104750,-1.004891,-0.078931,-0.000161,-0.012743,0.019133,0.045033,0.990439,-0.130391,0.013567,0.018276,-0.003223,-0.0610,-0.1830,-0.1220,-0.036526,0.064482,-0.024948,-0.996938
152661.125000,-0.988620,-0.080395,-0.127148,0.070562,-0.994291,0.080037,-0.132857,0.070154,0.988649,4.0589,7.6347,175.9175,0.045410,1.005370,-0.120110,-0.110448,-1.006040,-0.054248,-0.000508,0.011521,0.019269,0.070154,0.988649,-0.132857,-0.010063,0.020037,-0.001245,0.0000,-0.1830,-0.0610,-0.037874,0.065233,-0.037682,-0.996439
152661.200000,-0.988761,-0.077602,-0.127787,0.070565,-0.995778,0.058717,-0.131804,0.049040,0.990062,2.8357,7.5739,175.9179,0.044430,1.005370,-0.120600,-0.106539,-1.005071,-0.075954,-0.000412,-0.009138,0.019326,0.049040,0.990062,-0.131804,0.010079,0.018650,-0.002785,0.0000,-0.1830,-0.1220,-0.037160,0.065105,-0.027025,-0.996820
152661.275000,-0.988779,-0.078855,-0.126875,0.070100,-0.994934,0.072058,-0.131915,0.062355,0.989298,3.6066,7.5802,175.9448,0.044430,1.005370,-0.120110,-0.107971,-1.005817,-0.061996,-0.000044,0.004478,0.019289,0.062355,0.989298,-0.131915,-0.003249,0.019411,-0.002187,-0.0610,-0.1830,-0.1220,-0.037365,0.064917,-0.033717,-0.996621
152661.350000,-0.988623,-0.078648,-0.128211,0.070498,-0.995265,0.066919,-0.132867,0.057119,0.989487,3.3038,7.6353,175.9212,0.045410,1.005850,-0.121090,-0.108477,-1.005989,-0.068398,-0.000572,-0.001834,0.019942,0.057119,0.989487,-0.132867,0.003009,0.019683,-0.002213,0.0000,-0.1830,-0.0610,-0.037411,0.065488,-0.031113,-0.996666
152661.425000,-0.988771,-0.078330,-0.127266,0.070118,-0.995233,0.067782,-0.131969,0.058097,0.989550,3.3600,7.5834,175.9437,0.044920,1.005370,-0.120600,-0.107818,-1.005602,-0.066859,0.000035,-0.000394,0.019385,0.058097,0.989550,-0.131969,0.001515,0.019151,-0.002620,-0.0610,-0.1830,-0.1220,-0.037235,0.065024,-0.031574,-0.996689
152661.500000,-0.988675,-0.077920,-0.128259,0.069562,-0.995229,0.068412,-0.132978,0.058715,0.989378,3.3963,7.6417,175.9754,0.045890,1.004390,-0.121090,-0.108102,-1.004690,-0.066933,-0.000428,-0.000750,0.018527,0.058715,0.989378,-0.132978,0.001867,0.018334,-0.002093,-0.0610,-0.1830,-0.1220,-0.036994,0.065528,-0.031888,-0.996655
152661.576000,-0.988714,-0.076799,-0.128634,0.068704,-0.995436,0.066236,-0.133133,0.056651,0.989478,3.2768,7.6507,176.0250,0.045410,1.004880,-0.121580,-0.106432,-1.005227,-0.069419,-0.000276,-0.002382,0.019057,0.056651,0.989478,-0.133133,0.003472,0.018734,-0.002428,-0.0610,-0.1830,-0.1220,-0.036496,0.065659,-0.030824,-0.996698
152661.651000,-0.988602,-0.078541,-0.128442,0.069649,-0.994947,0.072318,-0.133473,0.062548,0.989077,3.6185,7.6703,175.9700,0.045410,1.004880,-0.121580,-0.108201,-1.005432,-0.063459,-0.000203,0.003652,0.019053,0.062548,0.989077,-0.133473,-0.002426,0.019135,-0.002088,-0.0610,-0.1830,-0.1220,-0.037175,0.065704,-0.033833,-0.996572
152661.726000,-0.988780,-0.075811,-0.128710,0.068173,-0.995698,0.062753,-0.132914,0.053274,0.989695,3.0812,7.6380,176.0559,0.045890,1.004390,-0.121580,-0.105870,-1.004570,-0.072919,-0.000260,-0.006340,0.018577,0.053274,0.989695,-0.132914,0.007322,0.018021,-0.002644,-0.0610,-0.1830,-0.1220,-0.036113,0.065618,-0.029101,-0.996766
152661.801000,-0.988705,-0.075928,-0.129221,0.067226,-0.995249,0.070433,-0.133954,0.060950,0.989111,3.5262,7.6982,176.1102,0.045890,1.004390,-0.122070,-0.105859,-1.005131,-0.065670,-0.000311,0.001509,0.018665,0.060950,0.989111,-0.133954,-0.000341,0.018608,-0.002091,-0.0610,-0.1830,-0.1220,-0.035910,0.066016,-0.032957,-0.996627
152661.876000,-0.988790,-0.075002,-0.129111,0.066742,-0.995507,0.067161,-0.133568,0.057791,0.989353,3.3430,7.6758,176.1385,0.046380,1.004390,-0.122070,-0.105431,-1.004980,-0.068921,-0.000168,-0.002229,0.018682,0.057791,0.989353,-0.133568,0.003311,0.018355,-0.002478,-0.0610,-0.1830,-0.0610,-0.035553,0.065887,-0.031341,-0.996701
152661.951000,-0.988862,-0.073927,-0.129176,0.065515,-0.995518,0.068204,-0.133639,0.058982,0.989273,3.4120,7.6799,176.2095,0.046870,1.004880,-0.122070,-0.104868,-1.005631,-0.067755,-0.000253,-0.001480,0.019184,0.058982,0.989273,-0.133639,0.002623,0.018910,-0.002410,0.0000,-0.1830,-0.0610,-0.034976,0.065921,-0.031902,-0.996701
152662.026000,-0.988766,-0.074114,-0.129801,0.065476,-0.995424,0.069600,-0.134366,0.060320,0.989094,3.4898,7.7219,176.2114,0.046380,1.004880,-0.122550,-0.104428,-1.005774,-0.066831,-0.000403,0.000386,0.019234,0.060320,0.989094,-0.134366,0.000805,0.019103,-0.002161,0.0000,-0.1830,-0.0610,-0.035015,0.066263,-0.032589,-0.996655
152662.101000,-0.988824,-0.073846,-0.129515,0.065311,-0.995480,0.068955,-0.134022,0.059726,0.989177,3.4553,7.7021,176.2211,0.046870,1.004880,-0.122550,-0.104680,-1.005727,-0.067488,-0.000125,-0.000736,0.019253,0.059726,0.989177,-0.134022,0.001892,0.019010,-0.002505,-0.0610,-0.1830,-0.1220,-0.034905,0.066104,-0.032277,-0.996680
152662.176000,-0.988736,-0.074843,-0.129616,0.065957,-0.995254,0.071551,-0.134356,0.062196,0.988979,3.5985,7.7214,176.1836,0.046870,1.004390,-0.122550,-0.105629,-1.005300,-0.065028,-0.000239,0.001781,0.018770,0.062196,0.988979,-0.134356,-0.000588,0.018722,-0.002168,-0.0610,-0.2440,-0.0610,-0.035320,0.066217,-0.033550,-0.996615
152662.251000,-0.988692,-0.073125,-0.130926,0.064969,-0.995734,0.065521,-0.135159,0.056274,0.989225,3.2559,7.7678,176.2404,0.046870,1.004390,-0.123530,-0.103613,-1.005154,-0.072013,-0.000499,-0.004279,0.018903,0.056274,0.989225,-0.135159,0.005361,0.018484,-0.002340,-0.0610,-0.1830,-0.1220,-0.034638,0.066741,-0.030550,-0.996701
152662.326000,-0.988543,-0.076096,-0.130355,0.066405,-0.994806,0.077149,-0.135549,0.067609,0.988461,3.9128,7.7903,176.1569,0.047360,1.004390,-0.123530,-0.107145,-1.005558,-0.060619,-0.000162,0.006806,0.018908,0.067609,0.988461,-0.135549,-0.005480,0.019236,-0.001950,-0.0610,-0.1830,-0.1220,-0.035752,0.066711,-0.036318,-0.996470
152662.401000,-0.988645,-0.075714,-0.129799,0.067468,-0.995483,0.066798,-0.134271,0.057282,0.989288,3.3139,7.7164,176.0960,0.046870,1.004880,-0.123040,-0.106451,-1.005397,-0.070454,-0.000070,-0.003252,0.019318,0.057282,0.989288,-0.134271,0.004349,0.018903,-0.002744,-0.0610,-0.2440,-0.1220,-0.035915,0.066238,-0.031124,-0.996671
152662.476000,-0.989446,-0.072543,-0.125433,0.065847,-0.996215,0.056737,-0.129075,0.047879,0.990478,2.7675,7.4161,176.1926,0.040520,0.986320,-0.116690,-0.097006,-0.986540,-0.073585,0.001061,-0.006941,-0.000065,0.047879,0.990478,-0.129075,0.006835,-0.000591,-0.001498,-0.3660,-0.1220,-0.5490,-0.034701,0.063818,-0.026232,-0.997013
152662.552000,-0.984555,-0.077580,-0.156946,0.062468,-0.993121,0.099033,-0.163550,0.087700,0.982629,5.1001,9.4130,176.3696,0.062980,1.007320,-0.147940,-0.116937,-1.011108,-0.067329,-0.005367,0.011933,0.026238,0.087700,0.982629,-0.163550,-0.009133,0.027806,0.001738,2.1970,0.5490,1.7080,-0.035187,0.080525,-0.046917,-0.995026
152662.627000,-0.989462,-0.070700,-0.126359,0.067944,-0.997351,0.025991,-0.127862,0.017131,0.991644,0.9897,7.3460,176.0718,0.000480,0.926260,-0.097650,-0.053623,-0.926311,-0.081027,-0.008507,0.003914,-0.062233,0.017131,0.991644,-0.127862,-0.004368,-0.060536,0.016640,5.0650,1.4640,3.9060,-0.034755,0.063727,-0.010810,-0.997303
152662.702000,-0.984246,-0.080901,-0.157207,0.060960,-0.989929,0.127769,-0.165961,0.116173,0.979265,6.7655,9.5530,176.4559,0.115720,1.062500,-0.159660,-0.174754,-1.065145,-0.052121,-0.006919,-0.006305,0.086278,0.116173,0.979265,-0.165961,0.016824,0.084771,-0.007893,10.5590,0.8540,7.9950,-0.035673,0.081266,-0.061344,-0.994163
152662.777000,-0.983177,-0.068462,-0.169338,0.057427,-0.995946,0.069232,-0.173392,0.058343,0.983123,3.3962,9.9851,176.6571,0.065910,0.966790,-0.149900,-0.105606,-0.969464,-0.102393,-0.009077,-0.022682,-0.013102,0.058343,0.983123,-0.173392,0.022447,-0.012914,0.009893,6.2250,0.2440,4.2720,-0.031622,0.086090,-0.032045,-0.995270
152662.852000,-0.978132,-0.075616,-0.193755,0.050330,-0.989936,0.132260,-0.201806,0.119616,0.972094,7.0150,11.6426,177.0544,0.092280,1.054190,-0.193350,-0.132514,-1.064509,-0.080479,-0.010272,0.020234,0.082112,0.119616,0.972094,-0.201806,-0.009432,0.084487,-0.005505,6.9580,0.7320,5.0650,-0.031725,0.099638,-0.063445,-0.992492
152662.927000,-0.983005,-0.066154,-0.171243,0.050800,-0.994412,0.092543,-0.176408,0.082271,0.980873,4.7945,10.1606,177.0417,0.084960,0.993650,-0.170410,-0.120069,-0.999552,-0.100390,0.003622,-0.017593,0.018287,0.082271,0.980873,-0.176408,0.018759,0.015689,-0.007680,0.3660,-0.3660,0.6100,-0.029392,0.087370,-0.043933,-0.994773
152663.002000,-0.981468,-0.071171,-0.177922,0.050832,-0.991904,0.116370,-0.184764,0.105169,0.977140,6.1431,10.6473,177.0352,0.080560,0.993650,-0.172360,-0.119120,-1.001568,-0.078803,-0.001630,0.010652,0.018427,0.105169,0.977140,-0.184764,-0.008512,0.019536,-0.001263,-0.1830,-0.3660,0.0000,-0.030691,0.091237,-0.055731,-0.993795
152663.077000,-0.982760,-0.065847,-0.172764,0.048619,-0.993583,0.102125,-0.178380,0.091964,0.979655,5.3629,10.2754,177.1678,0.087890,0.995600,-0.169920,-0.122576,-1.002291,-0.090581,0.001109,-0.010297,0.020429,0.091964,0.979655,-0.178380,0.012037,0.018771,-0.005235,-0.1830,-0.4270,0.2440,-0.028775,0.088273,-0.048791,-0.994484
152663.152000,-0.982125,-0.065463,-0.176478,0.046646,-0.992975,0.108745,-0.182357,0.098569,0.978279,5.7536,10.5071,177.2808,0.084470,0.994620,-0.171380,-0.117826,-1.002329,-0.085022,-0.000877,-0.000030,0.019535,0.098569,0.978279,-0.182357,0.002013,0.019262,-0.002703,-0.2440,-0.3050,-0.1830,-0.028192,0.090236,-0.052133,-0.994155
152663.227000,-0.982268,-0.064150,-0.176167,0.045792,-0.993272,0.106368,-0.181806,0.096415,0.978596,5.6268,10.4749,177.3309,0.084960,0.994140,-0.171870,-0.116950,-1.001842,-0.087787,0.000121,-0.002840,0.019196,0.096415,0.978596,-0.181806,0.004664,0.018462,-0.003739,-0.3050,-0.3660,0.0000,-0.027644,0.090011,-0.050989,-0.994250
152663.302000,-0.982494,-0.063524,-0.175130,0.045039,-0.993176,0.107577,-0.180769,0.097806,0.978650,5.7071,10.4145,177.3753,0.084960,0.995110,-0.170890,-0.116758,-1.002877,-0.085272,0.000142,-0.001332,0.019956,0.097806,0.978650,-0.180769,0.003266,0.019362,-0.003807,-0.1830,-0.4270,-0.4880,-0.027297,0.089487,-0.051641,-0.994274
152663.377000,-0.982558,-0.062711,-0.175063,0.043870,-0.993019,0.109492,-0.180707,0.099903,0.978450,5.8299,10.4109,177.4435,0.086910,0.993160,-0.170410,-0.117844,-1.001073,-0.083224,0.000049,-0.001281,0.018122,0.099903,0.978450,-0.180707,0.003079,0.017582,-0.003379,-0.3050,-0.3050,-0.1830,-0.026800,0.089458,-0.052652,-0.994237
152663.452000,-0.982323,-0.062330,-0.176514,0.044606,-0.993716,0.102663,-0.181804,0.092974,0.978930,5.4254,10.4748,177.4001,0.082030,0.995600,-0.171380,-0.112385,-1.003279,-0.090117,-0.000585,-0.003269,0.020298,0.092974,0.978930,-0.181804,0.005172,0.019638,-0.003261,-0.0610,-0.3660,-0.6710,-0.026886,0.090088,-0.049187,-0.994355
152663.528000,-0.982597,-0.063532,-0.174550,0.044361,-0.992761,0.111618,-0.180378,0.101932,0.978301,5.9484,10.3918,177.4150,0.083980,0.994620,-0.170410,-0.115964,-1.002715,-0.080476,0.000412,0.003839,0.019306,0.101932,0.978301,-0.180378,-0.001870,0.019244,-0.003717,-0.2440,-0.1830,-0.1220,-0.027131,0.089250,-0.053700,-0.994190
152663.603000,-0.983659,-0.059527,-0.169916,0.042502,-0.993862,0.102133,-0.174953,0.093242,0.980152,5.4342,10.0759,177.5259,0.086910,0.997550,-0.166500,-0.116580,-1.004739,-0.085387,0.001174,-0.007818,0.021630,0.093242,0.980152,-0.174953,0.009717,0.020202,-0.005271,-0.1830,-0.3050,-0.3050,-0.025643,0.086677,-0.049104,-0.994695
152663.678000,-0.981045,-0.062937,-0.183273,0.042877,-0.992847,0.111431,-0.188975,0.101460,0.976726,5.9305,10.8930,177.4975,0.081540,0.991210,-0.175780,-0.110162,-1.000211,-0.086529,-0.002545,0.005678,0.016827,0.101460,0.976726,-0.188975,-0.003770,0.017534,-0.000439,-0.3660,0.3660,-0.0610,-0.026618,0.093642,-0.053554,-0.993808
152663.753000,-0.982819,-0.059133,-0.174842,0.042523,-0.994350,0.097266,-0.179605,0.088160,0.979780,5.1416,10.3468,177.5226,0.082030,0.995600,-0.171380,-0.109529,-1.003156,-0.094876,0.001491,-0.008335,0.020269,0.088160,0.979780,-0.179605,0.009987,0.018787,-0.005460,0.1220,-0.4880,-0.6710,-0.025552,0.089092,-0.046608,-0.994604
152663.828000,-0.982670,-0.060229,-0.175307,0.040961,-0.992917,0.111522,-0.180782,0.102409,0.978177,5.9767,10.4153,177.6131,0.083980,0.995110,-0.170410,-0.112584,-1.003627,-0.079965,-0.000082,0.004398,0.019781,0.102409,0.978177,-0.180782,-0.002336,0.019854,-0.003315,-0.3050,-0.1220,-0.0610,-0.025445,0.089541,-0.053795,-0.994204
152663.903000,-0.983029,-0.057382,-0.174245,0.039943,-0.993983,0.101995,-0.179049,0.093304,0.979406,5.4419,10.3144,177.6732,0.084960,0.993650,-0.169430,-0.111014,-1.001558,-0.088441,0.000565,-0.006066,0.018241,0.093304,0.979406,-0.179049,0.007699,0.017149,-0.004064,-0.4880,-0.0610,0.2440,-0.024465,0.088809,-0.049093,-0.994537
152663.978000,-0.982759,-0.058308,-0.175457,0.039359,-0.993196,0.109605,-0.180654,0.100809,0.978367,5.8829,10.4079,177.7066,0.083980,0.994140,-0.169920,-0.110685,-1.002694,-0.081197,-0.000337,0.002697,0.018750,0.100809,0.978367,-0.180654,-0.000769,0.018699,-0.002950,-0.2440,-0.1830,-0.1220,-0.024557,0.089540,-0.052906,-0.994274
152664.053000,-0.982731,-0.058050,-0.175701,0.039971,-0.993696,0.104742,-0.180673,0.095910,0.978856,5.5961,10.4090,177.6709,0.083490,0.994620,-0.170410,-0.109844,-1.002862,-0.086497,-0.000136,-0.001815,0.019274,0.095910,0.978856,-0.180673,0.003660,0.018701,-0.003421,-0.1830,-0.1830,-0.1830,-0.024643,0.089596,-0.050446,-0.994395
152664.128000,-0.982923,-0.059102,-0.174267,0.040103,-0.993056,0.110597,-0.179594,0.101720,0.978468,5.9351,10.3461,177.6636,0.084960,0.994140,-0.169430,-0.112739,-1.002568,-0.079916,0.000268,0.002615,0.018733,0.101720,0.978468,-0.179594,-0.000707,0.018572,-0.003523,-0.2440,-0.2440,-0.1830,-0.024944,0.088973,-0.053384,-0.994290
152664.203000,-0.982360,-0.057231,-0.178025,0.041692,-0.995084,0.089834,-0.182291,0.080827,0.979917,4.7153,10.5032,177.5698,0.074210,0.996580,-0.171870,-0.099339,-1.004026,-0.101396,-0.000860,-0.007797,0.020766,0.080827,0.979917,-0.182291,0.009486,0.019802,-0.003265,-0.1830,-0.1830,-0.3050,-0.024864,0.090563,-0.042894,-0.994656
152664.278000,-0.981312,-0.062952,-0.181834,0.042731,-0.992669,0.113056,-0.187618,0.103173,0.976808,6.0294,10.8138,177.5066,0.078120,0.999020,-0.177240,-0.107322,-1.008396,-0.084714,-0.000811,0.011387,0.024413,0.103173,0.976808,-0.187618,-0.008733,0.025282,-0.003298,-0.4270,-0.2440,-0.6100,-0.026585,0.092937,-0.054393,-0.993830
152664.353000,-0.982065,-0.063057,-0.177685,0.043901,-0.992989,0.109751,-0.183360,0.099982,0.977948,5.8374,10.5655,177.4404,0.089350,0.989250,-0.173820,-0.119241,-0.997469,-0.087463,0.001157,-0.004059,0.015165,0.099982,0.977948,-0.183360,0.005473,0.014179,-0.004095,-0.7930,-1.8310,-1.0370,-0.026898,0.090796,-0.052744,-0.994108
152664.428000,-0.973760,-0.076552,-0.214314,0.070165,-0.996839,0.037264,-0.216489,0.021249,0.976054,1.2471,12.5029,175.8786,-0.008780,0.978510,-0.212400,-0.020837,-0.983948,-0.184621,0.008347,0.013253,0.009446,0.021249,0.976054,-0.216489,-0.013650,0.007924,-0.009243,-1.2810,-9.1550,1.0370,-0.036926,0.108426,-0.014727,-0.993309
152664.503000,-0.980424,-0.103363,-0.167582,0.081432,-0.987785,0.132850,-0.179267,0.116603,0.976866,6.8069,10.3271,175.2521,0.184080,1.009760,-0.115230,-0.265538,-0.997744,-0.027823,-0.063066,-0.073460,0.032974,0.116603,0.976866,-0.179267,0.082926,0.033020,0.049938,2.0140,-16.9060,2.5630,-0.046519,0.087314,-0.062796,-0.993111
152664.579000,-0.979152,-0.095779,-0.179129,0.081663,-0.993063,0.084599,-0.185989,0.068208,0.980182,3.9806,10.7188,175.2325,0.081050,0.994140,-0.173820,-0.143442,-0.995330,-0.117642,-0.004356,-0.027477,0.018898,0.068208,0.980182,-0.185989,0.028992,0.016980,-0.001494,0.7930,-2.1970,-0.4270,-0.044627,0.091827,-0.038431,-0.994032
152664.654000,-0.979633,-0.098316,-0.175078,0.078240,-0.989914,0.118107,-0.184923,0.102003,0.977445,5.9576,10.6567,175.4336,0.077630,0.994620,-0.174310,-0.143319,-0.999101,-0.083280,0.000246,0.010294,0.019541,0.102003,0.977445,-0.184923,-0.008221,0.020273,-0.003049,0.0610,0.0610,-1.0980,-0.044435,0.090603,-0.055396,-0.993352
152664.729000,-0.979709,-0.091862,-0.178131,0.076114,-0.992722,0.093325,-0.185408,0.077873,0.979571,4.5453,10.6849,175.5576,0.078120,0.993650,-0.175780,-0.136502,-0.996877,-0.109295,-0.000631,-0.015007,0.018858,0.077873,0.979571,-0.185408,0.016424,0.017185,-0.004021,-0.3660,0.2440,-0.4880,-0.042248,0.091435,-0.043059,-0.993982
152664.804000,-0.980197,-0.090295,-0.176240,0.071546,-0.991354,0.109994,-0.184649,0.095207,0.978182,5.5591,10.6406,175.8253,0.078610,0.993650,-0.174800,-0.135968,-0.998662,-0.090899,0.000500,0.002209,0.018811,0.095207,0.978182,-0.184649,-0.000444,0.018555,-0.003805,-0.2440,-0.1220,-0.1830,-0.040717,0.090795,-0.051626,-0.993697
152664.879000,-0.980525,-0.087931,-0.175611,0.070337,-0.992084,0.104025,-0.183368,0.089647,0.978948,5.2323,10.5660,175.8970,0.079580,0.993650,-0.173820,-0.134878,-0.998269,-0.095675,0.000379,-0.004458,0.018684,0.089647,0.978948,-0.183368,0.006065,0.017760,-0.004111,-0.4270,-0.0610,0.1830,-0.039809,0.090293,-0.048714,-0.993926
152664.954000,-0.980473,-0.087582,-0.176073,0.068814,-0.991545,0.110017,-0.184220,0.095752,0.978210,5.5906,10.6157,175.9853,0.080560,0.994140,-0.174310,-0.135365,-0.999368,-0.090161,0.000253,0.000869,0.019336,0.095752,0.978210,-0.184220,0.000968,0.018966,-0.003750,-0.5490,0.0000,0.2440,-0.039345,0.090639,-0.051765,-0.993759
152665.029000,-0.980838,-0.085584,-0.175021,0.067955,-0.992215,0.104358,-0.182589,0.090464,0.979019,5.2793,10.5206,176.0367,0.080070,0.993650,-0.172850,-0.133324,-0.998512,-0.093953,0.000268,-0.004092,0.018534,0.090464,0.979019,-0.182589,0.005714,0.017672,-0.003925,-0.3050,-0.1830,-0.1830,-0.038617,0.089943,-0.049000,-0.993991
152665.104000,-0.980506,-0.086769,-0.176293,0.067871,-0.991551,0.110544,-0.184396,0.096424,0.978111,5.6301,10.6259,176.0403,0.079580,0.994620,-0.173820,-0.133688,-1.000030,-0.088784,-0.000358,0.002640,0.019634,0.096424,0.978111,-0.184396,-0.000693,0.019559,-0.003090,-0.2440,-0.1830,-0.1830,-0.038903,0.090739,-0.052067,-0.993751
152665.179000,-0.981080,-0.082466,-0.175163,0.065678,-0.992860,0.099575,-0.182124,0.086187,0.979491,5.0286,10.4935,176.1701,0.080070,0.994140,-0.172850,-0.130261,-0.998995,-0.098206,0.000388,-0.008457,0.018984,0.086187,0.979491,-0.182124,0.010001,0.017685,-0.004394,-0.3660,-0.1830,0.0000,-0.037253,0.089846,-0.046713,-0.994162
152665.254000,-0.981067,-0.084386,-0.174320,0.064697,-0.991175,0.115701,-0.182545,0.102232,0.977868,5.9684,10.5180,176.2271,0.081540,0.994620,-0.172360,-0.133882,-1.000509,-0.081748,0.000366,0.006589,0.019479,0.102232,0.977868,-0.182545,-0.004570,0.019747,-0.003489,-0.4880,-0.1830,0.1830,-0.037505,0.089778,-0.054826,-0.993744
152665.329000,-0.981243,-0.081480,-0.174708,0.064562,-0.992847,0.100431,-0.181642,0.087268,0.979485,5.0914,10.4654,176.2356,0.081050,0.994620,-0.171870,-0.130544,-0.999534,-0.096267,-0.000143,-0.008247,0.019337,0.087268,0.979485,-0.181642,0.009888,0.018137,-0.003904,-0.1830,-0.1830,-0.1830,-0.036724,0.089609,-0.047200,-0.994180
152665.404000,-0.981025,-0.080755,-0.176261,0.062429,-0.992281,0.107153,-0.183554,0.094116,0.978494,5.4940,10.5768,176.3588,0.080070,0.993650,-0.172850,-0.128326,-0.999502,-0.090312,-0.000470,-0.000282,0.018542,0.094116,0.978494,-0.183554,0.002063,0.018196,-0.002960,-0.1220,-0.2440,-0.3050,-0.036014,0.090501,-0.050623,-0.993957
152665.479000,-0.981362,-0.079941,-0.174751,0.061717,-0.992304,0.107348,-0.181988,0.094562,0.978743,5.5185,10.4856,176.4015,0.081540,0.995110,-0.172360,-0.129450,-1.000922,-0.089436,0.000342,-0.001258,0.019977,0.094562,0.978743,-0.181988,0.003110,0.019357,-0.004049,-0.2440,-0.2440,-0.1830,-0.035627,0.089720,-0.050780,-0.994033
152665.555000,-0.981245,-0.079897,-0.175426,0.061568,-0.992291,0.107550,-0.182667,0.094732,0.978600,5.5292,10.5251,176.4097,0.081050,0.994620,-0.172360,-0.128760,-1.000500,-0.089254,-0.000229,-0.000579,0.019464,0.094732,0.978600,-0.182667,0.002437,0.019026,-0.003366,-0.2440,-0.3050,-0.1830,-0.035580,0.090064,-0.050876,-0.993999
152665.630000,-0.981417,-0.079656,-0.174570,0.061456,-0.992326,0.107297,-0.181777,0.094575,0.978781,5.5191,10.4733,176.4168,0.081050,0.994620,-0.171870,-0.128768,-1.000447,-0.088890,0.000204,-0.000771,0.019370,0.094575,0.978781,-0.181777,0.002581,0.018841,-0.003769,-0.2440,-0.3050,-0.1830,-0.035489,0.089620,-0.050770,-0.994048
152665.705000,-0.981282,-0.078597,-0.175807,0.060702,-0.992623,0.104951,-0.182759,0.092315,0.978814,5.3878,10.5305,176.4602,0.081050,0.994620,-0.172360,-0.127405,-1.000452,-0.091703,-0.000475,-0.003043,0.019460,0.092315,0.978814,-0.182759,0.004854,0.018812,-0.003275,-0.1220,-0.4270,-0.4270,-0.035032,0.090176,-0.049611,-0.994072
152665.780000,-0.981434,-0.076928,-0.175699,0.059166,-0.992796,0.104189,-0.182448,0.091859,0.978915,5.3608,10.5124,176.5501,0.080560,0.994140,-0.172360,-0.125258,-1.000170,-0.092103,-0.000061,-0.003084,0.018957,0.091859,0.978915,-0.182448,0.004808,0.018246,-0.003582,-0.1830,-0.3660,-0.1830,-0.034225,0.090066,-0.049302,-0.994126
152665.855000,-0.981525,-0.075618,-0.175757,0.057533,-0.992720,0.105812,-0.182479,0.093745,0.978730,5.4712,10.5142,176.6454,0.081050,0.994140,-0.172360,-0.124434,-1.000478,-0.090288,-0.000010,-0.001645,0.018996,0.093745,0.978730,-0.182479,0.003415,0.018420,-0.003551,-0.2440,-0.1830,-0.1220,-0.033485,0.090090,-0.050185,-0.994105
152665.930000,-0.981625,-0.073955,-0.175904,0.056023,-0.992913,0.104813,-0.182409,0.093033,0.978811,5.4295,10.5101,176.7336,0.081540,0.994620,-0.172360,-0.123280,-1.001068,-0.091049,-0.000092,-0.002829,0.019497,0.093033,0.978811,-0.182409,0.004629,0.018803,-0.003625,-0.1830,-0.1830,-0.2440,-0.032686,0.090105,-0.049753,-0.994152
152666.005000,-0.981683,-0.074745,-0.175248,0.056227,-0.992521,0.108354,-0.182036,0.096516,0.978544,5.6330,10.4884,176.7219,0.080560,0.994140,-0.171870,-0.123272,-1.000798,-0.086897,0.000169,0.001683,0.018866,0.096516,0.978544,-0.182036,0.000138,0.018614,-0.003506,-0.3050,-0.2440,-0.1220,-0.032938,0.089853,-0.051523,-0.994076
152666.080000,-0.981459,-0.074713,-0.176512,0.056472,-0.992740,0.106197,-0.183165,0.094260,0.978553,5.5021,10.5542,176.7069,0.081050,0.994620,-0.172850,-0.123348,-1.001178,-0.090235,-0.000292,-0.001065,0.019558,0.094260,0.978553,-0.183165,0.002922,0.019077,-0.003356,-0.2440,-0.2440,-0.1830,-0.032992,0.090455,-0.050413,-0.994076
152666.155000,-0.981959,-0.072074,-0.174817,0.054704,-0.993256,0.102227,-0.181006,0.090819,0.979280,5.2985,10.4284,176.8114,0.081050,0.994140,-0.171380,-0.121279,-1.000521,-0.092212,0.000398,-0.004667,0.018799,0.090819,0.979280,-0.181006,0.006314,0.017863,-0.004049,-0.2440,-0.2440,-0.1220,-0.031876,0.089466,-0.048538,-0.994296
152666.230000,-0.981815,-0.071065,-0.176038,0.053000,-0.993029,0.105282,-0.182293,0.094037,0.978737,5.4881,10.5033,176.9101,0.081050,0.994620,-0.171870,-0.120003,-1.001486,-0.089459,-0.000352,-0.001281,0.019370,0.094037,0.978737,-0.182293,0.003118,0.018885,-0.003253,-0.1830,-0.2440,-0.2440,-0.031198,0.090107,-0.050121,-0.994181
152666.305000,-0.981612,-0.075226,-0.175440,0.055753,-0.991984,0.113400,-0.182564,0.101533,0.977937,5.9274,10.5192,176.7492,0.080070,0.994620,-0.171870,-0.123266,-1.001673,-0.081709,-0.000128,0.007389,0.019272,0.101533,0.977937,-0.182564,-0.005363,0.019707,-0.002981,-0.1830,-0.1220,-0.3050,-0.032945,0.090048,-0.054062,-0.993923
152666.380000,-0.981698,-0.072500,-0.176104,0.055389,-0.993423,0.100213,-0.182211,0.088625,0.979257,5.1713,10.4986,176.7707,0.081540,0.995110,-0.172360,-0.121840,-1.001322,-0.095451,-0.000219,-0.007311,0.019951,0.088625,0.979257,-0.182211,0.009047,0.018843,-0.003826,-0.1830,-0.2440,-0.1830,-0.032156,0.090094,-0.047481,-0.994281
152666.455000,-0.981846,-0.073772,-0.174745,0.054797,-0.992305,0.111030,-0.181591,0.099439,0.978334,5.8037,10.4625,176.8056,0.081050,0.994620,-0.171380,-0.123006,-1.001554,-0.083481,0.000203,0.004230,0.019268,0.099439,0.978334,-0.181591,-0.002296,0.019285,-0.003467,-0.1830,-0.2440,-0.1830,-0.032335,0.089618,-0.052932,-0.994043
152666.531000,-0.981779,-0.072043,-0.175838,0.054576,-0.993262,0.102231,-0.182018,0.090772,0.979096,5.2968,10.4873,176.8183,0.081540,0.994620,-0.171870,-0.121489,-1.001039,-0.092835,-0.000288,-0.005130,0.019394,0.090772,0.979096,-0.182018,0.006876,0.018515,-0.003528,-0.2440,-0.2440,-0.0610,-0.031838,0.089981,-0.048530,-0.994251
152666.606000,-0.981798,-0.074004,-0.174917,0.054824,-0.992188,0.112057,-0.181843,0.100428,0.978186,5.8619,10.4771,176.8039,0.081540,0.994140,-0.171380,-0.123649,-1.001108,-0.082630,0.000047,0.004727,0.018835,0.100428,0.978186,-0.181843,-0.002802,0.018946,-0.003212,-0.1830,-0.1830,-0.1830,-0.032401,0.089728,-0.053442,-0.994004
152666.681000,-0.981821,-0.072787,-0.175301,0.055507,-0.993282,0.101539,-0.181514,0.089963,0.979265,5.2489,10.4580,176.7643,0.080560,0.994620,-0.171380,-0.121447,-1.000868,-0.092970,-0.000226,-0.004974,0.019229,0.089963,0.979265,-0.181514,0.006686,0.018365,-0.003544,-0.1220,-0.2440,-0.2440,-0.032258,0.089717,-0.048151,-0.994280
152666.756000,-0.981876,-0.072487,-0.175116,0.054126,-0.992737,0.107444,-0.181632,0.096018,0.978668,5.6034,10.4648,176.8448,0.081050,0.994620,-0.171380,-0.121666,-1.001423,-0.086944,-0.000036,0.000735,0.019277,0.096018,0.978668,-0.181632,0.001124,0.018951,-0.003426,-0.1830,-0.3050,-0.1830,-0.031840,0.089712,-0.051165,-0.994143
152666.831000,-0.981676,-0.070626,-0.176988,0.053220,-0.993437,0.101241,-0.182977,0.089967,0.978992,5.2506,10.5432,176.8969,0.080560,0.994140,-0.172360,-0.118791,-1.000778,-0.094040,-0.000692,-0.004979,0.018949,0.089967,0.978992,-0.182977,0.006700,0.018169,-0.003053,-0.0610,-0.3050,-0.3660,-0.031141,0.090512,-0.048079,-0.994247
152666.906000,-0.981893,-0.072928,-0.174834,0.053711,-0.992229,0.112237,-0.181661,0.100814,0.978180,5.8843,10.4665,176.8690,0.081050,0.994140,-0.171380,-0.122120,-1.001296,-0.082141,0.000286,0.005598,0.018795,0.100814,0.978180,-0.181661,-0.003681,0.018963,-0.003394,-0.1830,-0.1830,-0.1220,-0.031850,0.089660,-0.053583,-0.994020
152666.981000,-0.981935,-0.068479,-0.176392,0.052139,-0.994048,0.095660,-0.181892,0.084735,0.979661,4.9435,10.4800,176.9605,0.081050,0.995110,-0.171870,-0.117413,-1.001402,-0.098796,-0.000515,-0.010782,0.019790,0.084735,0.979661,-0.181892,0.012430,0.018447,-0.003657,-0.1220,-0.2440,-0.2440,-0.030323,0.090072,-0.045351,-0.994440
152667.056000,-0.981800,-0.072175,-0.175666,0.052316,-0.991967,0.115169,-0.182568,0.103883,0.977690,6.0651,10.5194,176.9498,0.080560,0.995110,-0.171870,-0.120724,-1.002696,-0.079369,-0.000141,0.009349,0.019768,0.103883,0.977690,-0.182568,-0.007210,0.020429,-0.002981,-0.1220,-0.2440,-0.2440,-0.031314,0.090107,-0.055098,-0.993914
152667.131000,-0.981921,-0.070119,-0.175825,0.052902,-0.993503,0.100766,-0.181748,0.089643,0.979251,5.2304,10.4716,176.9161,0.082030,0.994620,-0.171870,-0.120070,-1.001137,-0.094052,-0.000093,-0.006795,0.019421,0.089643,0.979251,-0.181748,0.008499,0.018349,-0.003798,-0.1830,-0.2440,-0.0610,-0.030931,0.089904,-0.047874,-0.994318
152667.206000,-0.981791,-0.072538,-0.175568,0.053209,-0.992237,0.112404,-0.182358,0.101016,0.978029,5.8969,10.5072,176.8978,0.081050,0.995110,-0.171870,-0.121582,-1.002391,-0.082352,-0.000113,0.005908,0.019830,0.101016,0.978029,-0.182358,-0.003851,0.020079,-0.003191,-0.1830,-0.1830,-0.2440,-0.031627,0.090023,-0.053678,-0.993989
152667.281000,-0.981907,-0.069645,-0.176090,0.052798,-0.993724,0.098615,-0.181853,0.087533,0.979422,5.1071,10.4777,176.9221,0.081050,0.994620,-0.171870,-0.118589,-1.001047,-0.096010,-0.000249,-0.007962,0.019339,0.087533,0.979422,-0.181853,0.009622,0.018200,-0.003693,-0.1220,-0.2440,-0.3050,-0.030784,0.089993,-0.046801,-0.994366
152667.356000,-0.981788,-0.071005,-0.176211,0.051791,-0.992431,0.111347,-0.182783,0.100193,0.978035,5.8492,10.5319,176.9804,0.081540,0.995110,-0.172360,-0.120342,-1.002547,-0.083775,-0.000163,0.004569,0.019967,0.100193,0.978035,-0.182783,-0.002522,0.020066,-0.003253,-0.1830,-0.2440,-0.1830,-0.030884,0.090289,-0.053204,-0.994014
152667.431000,-0.982134,-0.067933,-0.175491,0.051218,-0.993859,0.098082,-0.181076,0.087342,0.979583,5.0951,10.4324,177.0147,0.080560,0.994140,-0.171380,-0.116580,-1.000719,-0.095638,0.000193,-0.007722,0.018745,0.087342,0.979583,-0.181076,0.009298,0.017571,-0.003979,-0.2440,-0.2440,-0.0610,-0.029955,0.089641,-0.046616,-0.994432
152667.506000,-0.981670,-0.073891,-0.175682,0.053238,-0.991406,0.119497,-0.183002,0.107954,0.977167,6.3043,10.5447,176.8958,0.081540,0.995110,-0.171870,-0.123380,-1.002755,-0.075442,-0.000416,0.012573,0.019806,0.107954,0.977167,-0.183002,-0.010296,0.020929,-0.002547,-0.1830,-0.2440,-0.1220,-0.031982,0.090234,-0.057220,-0.993761
152667.582000,-0.981760,-0.072510,-0.175752,0.055447,-0.993428,0.100128,-0.181857,0.088557,0.979329,5.1670,10.4780,176.7675,0.081050,0.994140,-0.171870,-0.121451,-1.000322,-0.095019,-0.000136,-0.006953,0.018880,0.088557,0.979329,-0.181857,0.008589,0.017817,-0.003685,-0.1220,-0.1220,-0.3050,-0.032173,0.089915,-0.047442,-0.994298
152667.657000,-0.981527,-0.076795,-0.175238,0.056800,-0.991577,0.116398,-0.182700,0.104294,0.977621,6.0894,10.5271,176.6880,0.081050,0.994620,-0.171870,-0.125816,-1.001644,-0.079098,-0.000164,0.009245,0.019329,0.104294,0.977621,-0.182700,-0.007139,0.020001,-0.002845,-0.1830,-0.2440,-0.2440,-0.033606,0.090041,-0.055516,-0.993822
152667.732000,-0.981872,-0.073113,-0.174876,0.056301,-0.993469,0.099241,-0.180989,0.087597,0.979576,5.1100,10.4274,176.7182,0.082510,0.994620,-0.171380,-0.123764,-1.000487,-0.095688,0.000041,-0.009384,0.019343,0.087597,0.979576,-0.180989,0.011014,0.018009,-0.004069,-0.1830,-0.1830,-0.1220,-0.032538,0.089472,-0.046975,-0.994349
152667.807000,-0.981562,-0.074941,-0.175843,0.055776,-0.992197,0.111513,-0.182828,0.099649,0.978082,5.8173,10.5345,176.7478,0.080560,0.995110,-0.171870,-0.123427,-1.002017,-0.083670,-0.000630,0.005036,0.019799,0.099649,0.978082,-0.182828,-0.002977,0.020037,-0.002721,0.0610,-0.1220,-0.5490,-0.032878,0.090213,-0.053111,-0.993962
152667.882000,-0.981556,-0.076894,-0.175030,0.058183,-0.992267,0.109636,-0.182107,0.097430,0.978440,5.6866,10.4925,176.6077,0.081050,0.994620,-0.171870,-0.125953,-1.001056,-0.086018,0.000039,0.002176,0.019368,0.097430,0.978440,-0.182107,-0.000275,0.019182,-0.003439,-0.1830,-0.1220,-0.2440,-0.033973,0.089822,-0.052078,-0.994015
152667.957000,-0.981276,-0.079643,-0.175370,0.060322,-0.991776,0.112881,-0.182918,0.100188,0.978010,5.8490,10.5398,176.4823,0.082030,0.994140,-0.172360,-0.129444,-1.000472,-0.083973,-0.000136,0.003996,0.019062,0.100188,0.978010,-0.182918,-0.002043,0.019118,-0.003113,-0.3050,-0.3660,0.0610,-0.035207,0.090125,-0.053596,-0.993864
152668.032000,-0.981591,-0.075848,-0.175291,0.059111,-0.993349,0.098811,-0.181619,0.086631,0.979546,5.0541,10.4641,176.5538,0.081050,0.994620,-0.171870,-0.124871,-1.000196,-0.096910,-0.000113,-0.008901,0.019332,0.086631,0.979546,-0.181619,0.010525,0.018077,-0.003926,-0.1220,-0.2440,-0.3050,-0.033933,0.089740,-0.046626,-0.994294
152668.107000,-0.981107,-0.079475,-0.176390,0.059534,-0.991510,0.115601,-0.184080,0.102916,0.977509,6.0102,10.6075,176.5275,0.080560,0.994620,-0.172850,-0.127596,-1.001361,-0.081430,-0.000661,0.008355,0.019488,0.102916,0.977509,-0.184080,-0.006226,0.020132,-0.002441,0.0000,-0.1220,-0.4270,-0.034971,0.090685,-0.054973,-0.993746
152668.182000,-0.981866,-0.073210,-0.174868,0.057492,-0.993974,0.093326,-0.180647,0.081580,0.980159,4.7578,10.4074,176.6490,0.080560,0.994140,-0.171380,-0.121911,-0.999512,-0.101431,0.000254,-0.013637,0.018683,0.081580,0.980159,-0.180647,0.015060,0.016995,-0.004408,-0.1830,-0.1220,-0.1830,-0.032857,0.089372,-0.043969,-0.994485
152668.257000,-0.981456,-0.074548,-0.176597,0.055237,-0.992188,0.111855,-0.183556,0.100027,0.977907,5.8403,10.5770,176.7788,0.081050,0.994620,-0.172850,-0.123170,-1.001707,-0.084420,-0.000361,0.004864,0.019547,0.100027,0.977907,-0.183556,-0.002844,0.019723,-0.002964,-0.3050,-0.4270,0.0610,-0.032645,0.090589,-0.053294,-0.993925
152668.332000,-0.981973,-0.072088,-0.174735,0.055007,-0.993395,0.100702,-0.180841,0.089275,0.979452,5.2080,10.4187,176.7938,0.081050,0.994140,-0.171380,-0.121308,-1.000374,-0.093763,0.000481,-0.006256,0.018791,0.089275,0.979452,-0.180841,0.007858,0.017690,-0.004215,-0.2440,-0.2440,-0.1220,-0.031955,0.089400,-0.047765,-0.994336
152668.407000,-0.981635,-0.073904,-0.175874,0.054899,-0.992350,0.110578,-0.182701,0.098892,0.978182,5.7729,10.5271,176.7990,0.080560,0.994140,-0.171870,-0.122324,-1.001117,-0.084526,-0.000383,0.004164,0.018859,0.098892,0.978182,-0.182701,-0.002239,0.018975,-0.002841,-0.1830,-0.1830,-0.2440,-0.032395,0.090185,-0.052684,-0.994003
152668.482000,-0.981847,-0.073330,-0.174925,0.055537,-0.992969,0.104537,-0.181361,0.092925,0.979016,5.4221,10.4491,176.7626,0.081050,0.994140,-0.171380,-0.122501,-1.000565,-0.090103,0.000147,-0.002489,0.018807,0.092925,0.979016,-0.181361,0.004208,0.018126,-0.003694,-0.1830,-0.2440,-0.1830,-0.032404,0.089590,-0.049653,-0.994212
152668.558000,-0.981610,-0.074764,-0.175650,0.055838,-0.992325,0.110331,-0.182551,0.098494,0.978251,5.7494,10.5184,176.7443,0.081540,0.994140,-0.171870,-0.124178,-1.000920,-0.085100,-0.000316,0.002765,0.018936,0.098494,0.978251,-0.182551,-0.000855,0.018885,-0.002992,-0.1830,-0.3050,-0.1830,-0.032847,0.090090,-0.052521,-0.994005
152668.633000,-0.981865,-0.070933,-0.175809,0.054185,-0.993681,0.098297,-0.181671,0.086988,0.979504,5.0750,10.4671,176.8413,0.081050,0.994620,-0.171870,-0.119915,-1.000837,-0.096552,-0.000102,-0.008533,0.019335,0.086988,0.979504,-0.181671,0.010168,0.018118,-0.003875,-0.1830,-0.2440,-0.2440,-0.031457,0.089877,-0.046584,-0.994365
152668.708000,-0.981790,-0.073848,-0.175025,0.054218,-0.991954,0.114403,-0.182066,0.102830,0.977895,6.0029,10.4901,176.8391,0.081050,0.994140,-0.171380,-0.122994,-1.001353,-0.080120,-0.000013,0.007691,0.018781,0.102830,0.977895,-0.182066,-0.005697,0.019248,-0.002989,-0.1830,-0.2440,-0.1830,-0.032212,0.089817,-0.054640,-0.993936
152668.783000,-0.981777,-0.072434,-0.175688,0.055108,-0.993301,0.101569,-0.181868,0.090036,0.979192,5.2535,10.4786,176.7873,0.081050,0.995110,-0.171870,-0.121457,-1.001434,-0.093438,-0.000226,-0.005363,0.019833,0.090036,0.979192,-0.181868,0.007129,0.018916,-0.003681,-0.1830,-0.2440,-0.2440,-0.032069,0.089905,-0.048177,-0.994267
152668.858000,-0.981621,-0.074559,-0.175673,0.055354,-0.992188,0.111803,-0.182636,0.100024,0.978079,5.8391,10.5233,176.7725,0.081050,0.994140,-0.171870,-0.123490,-1.001102,-0.083467,-0.000282,0.004826,0.018892,0.100024,0.978079,-0.182636,-0.002877,0.019067,-0.002907,-0.0610,-0.1830,-0.3050,-0.032675,0.090121,-0.053278,-0.993968
152668.933000,-0.981614,-0.073341,-0.176223,0.055721,-0.993126,0.102940,-0.182561,0.091228,0.978953,5.3240,10.5190,176.7511,0.081050,0.994620,-0.172360,-0.122133,-1.001009,-0.092791,-0.000318,-0.004171,0.019456,0.091228,0.978953,-0.182561,0.005941,0.018673,-0.003472,-0.0610,-0.1830,-0.3050,-0.032454,0.090220,-0.048826,-0.994195
152669.008000,-0.981599,-0.073740,-0.176142,0.055060,-0.992550,0.108685,-0.182844,0.096987,0.978346,5.6614,10.5355,176.7895,0.081050,0.994140,-0.172360,-0.122507,-1.001004,-0.087029,-0.000198,0.001696,0.018996,0.096987,0.978346,-0.182844,0.000173,0.018804,-0.003186,-0.0610,-0.1220,-0.3050,-0.032393,0.090284,-0.051726,-0.994044
152669.083000,-0.981463,-0.076880,-0.175557,0.057490,-0.991932,0.112983,-0.182827,0.100796,0.977964,5.8845,10.5345,176.6477,0.081540,0.994620,-0.172360,-0.126235,-1.001382,-0.083216,-0.000062,0.005144,0.019488,0.100796,0.977964,-0.182827,-0.003134,0.019650,-0.003206,-0.1830,-0.1830,-0.1830,-0.033799,0.090146,-0.053773,-0.993901
152669.158000,-0.981336,-0.078512,-0.175543,0.059946,-0.992268,0.108676,-0.182718,0.096125,0.978455,5.6108,10.5281,176.5044,0.081050,0.994620,-0.172360,-0.127370,-1.000802,-0.087848,-0.000194,0.000848,0.019464,0.096125,0.978455,-0.182718,0.001045,0.019171,-0.003315,-0.1220,-0.1830,-0.2440,-0.034824,0.090107,-0.051510,-0.993989
152669.233000,-0.981390,-0.077601,-0.175649,0.059484,-0.992568,0.106165,-0.182582,0.093741,0.978712,5.4711,10.5202,176.5315,0.081540,0.994140,-0.172360,-0.126894,-1.000200,-0.090387,-0.000156,-0.002132,0.019031,0.093741,0.978712,-0.182582,0.003912,0.018427,-0.003449,-0.1220,-0.1830,-0.2440,-0.034476,0.090092,-0.050275,-0.994066
152669.308000,-0.981828,-0.073653,-0.174894,0.056740,-0.993387,0.099817,-0.181090,0.088079,0.979514,5.1383,10.4332,176.6926,0.080560,0.994140,-0.171380,-0.122344,-1.000101,-0.094894,0.000178,-0.006968,0.018750,0.088079,0.979514,-0.181090,0.008561,0.017639,-0.003965,-0.1830,-0.0610,-0.3050,-0.032784,0.089504,-0.047242,-0.994325
152669.383000,-0.981315,-0.078019,-0.175880,0.057964,-0.991508,0.116415,-0.183469,0.104045,0.977504,6.0757,10.5719,176.6196,0.081050,0.994620,-0.172360,-0.126820,-1.001541,-0.079867,-0.000487,0.009012,0.019424,0.104045,0.977504,-0.183469,-0.006876,0.020122,-0.002564,-0.1830,-0.3050,-0.2440,-0.034209,0.090401,-0.055461,-0.993771
152669.458000,-0.981563,-0.077104,-0.174900,0.059624,-0.992883,0.103089,-0.181604,0.090760,0.979174,5.2957,10.4632,176.5239,0.081050,0.994620,-0.171870,-0.126185,-1.000427,-0.092738,0.000149,-0.004683,0.019360,0.090760,0.979174,-0.181604,0.006395,0.018448,-0.003942,-0.1830,-0.2440,-0.2440,-0.034382,0.089647,-0.048746,-0.994186
152669.533000,-0.981003,-0.080465,-0.176518,0.060989,-0.991708,0.113115,-0.184156,0.100200,0.977776,5.8511,10.6119,176.4425,0.080070,0.994620,-0.172850,-0.128070,-1.001041,-0.084093,-0.000867,0.006074,0.019468,0.100200,0.977776,-0.184156,-0.004004,0.019875,-0.002364,0.0610,-0.3660,-0.4880,-0.035584,0.090732,-0.053662,-0.993792
152669.609000,-0.980968,-0.079487,-0.177153,0.062126,-0.992895,0.101488,-0.183961,0.088551,0.978937,5.1687,10.6006,176.3762,0.079580,0.994140,-0.173330,-0.126381,-0.999724,-0.096287,-0.000827,-0.005442,0.019061,0.088551,0.978937,-0.183961,0.007157,0.018254,-0.003033,0.3660,-0.4880,-0.8540,-0.035614,0.090816,-0.047793,-0.994082
152669.684000,-0.980723,-0.079713,-0.178406,0.061731,-0.992641,0.104175,-0.185397,0.091154,0.978427,5.3225,10.6843,176.3983,0.077140,0.993650,-0.174310,-0.123761,-0.999735,-0.094276,-0.000922,-0.000350,0.018614,0.091154,0.978427,-0.185397,0.002117,0.018340,-0.002569,0.3050,-0.4880,-0.7930,-0.035576,0.091504,-0.049129,-0.993956
152669.759000,-0.981240,-0.078756,-0.175971,0.060700,-0.992540,0.105739,-0.182986,0.093074,0.978700,5.4324,10.5437,176.4602,0.079580,0.993650,-0.173330,-0.125842,-0.999734,-0.091718,0.000556,-0.000945,0.018599,0.093074,0.978700,-0.182986,0.002625,0.018005,-0.004006,-0.2440,-0.2440,-0.0610,-0.035073,0.090277,-0.050001,-0.994042
152669.834000,-0.980567,-0.078540,-0.179779,0.060784,-0.992902,0.102234,-0.186532,0.089320,0.978380,5.2163,10.7505,176.4528,0.077630,0.994140,-0.175290,-0.122688,-1.000285,-0.097184,-0.001379,-0.002666,0.019311,0.089320,0.978380,-0.186532,0.004480,0.018869,-0.002412,0.1830,-0.4880,-0.6710,-0.035043,0.092134,-0.048179,-0.993963
152669.909000,-0.980723,-0.081076,-0.177788,0.062486,-0.992209,0.107784,-0.185141,0.094597,0.978148,5.5239,10.6694,176.3544,0.076660,0.994140,-0.174800,-0.124706,-1.000445,-0.091131,-0.000003,0.003625,0.019146,0.094597,0.978148,-0.185141,-0.001786,0.019119,-0.003315,0.0000,-0.6100,-0.6100,-0.036112,0.091292,-0.050907,-0.993866
152669.984000,-0.980805,-0.079579,-0.178011,0.062579,-0.993102,0.099160,-0.184674,0.086117,0.979020,5.0269,10.6422,176.3493,0.076660,0.994620,-0.174800,-0.123223,-1.000295,-0.099636,-0.000154,-0.005037,0.019607,0.086117,0.979020,-0.184674,0.006703,0.018723,-0.003785,-0.1830,-0.4880,-0.2440,-0.035750,0.091210,-0.046594,-0.994098
152670.059000,-0.980759,-0.080667,-0.177778,0.062318,-0.992359,0.106492,-0.185010,0.093364,0.978292,5.4516,10.6617,176.3643,0.076660,0.994620,-0.174800,-0.124342,-1.000857,-0.092327,-0.000031,0.002396,0.019617,0.093364,0.978292,-0.185010,-0.000544,0.019451,-0.003449,-0.2440,-0.4880,-0.1830,-0.035965,0.091253,-0.050270,-0.993908
152670.134000,-0.980706,-0.077489,-0.179477,0.060870,-0.993487,0.096324,-0.185772,0.083541,0.979035,4.8772,10.7061,176.4483,0.076660,0.994620,-0.175780,-0.120704,-1.000408,-0.103245,-0.000488,-0.007666,0.019781,0.083541,0.979035,-0.185772,0.009307,0.018715,-0.003663,-0.1830,-0.3660,-0.3660,-0.034794,0.091851,-0.045231,-0.994136
152670.209000,-0.980767,-0.081566,-0.177322,0.061968,-0.991617,0.113387,-0.185084,0.100218,0.977599,5.8532,10.6660,176.3847,0.076660,0.994620,-0.174800,-0.125317,-1.001351,-0.085394,0.000342,0.009411,0.019576,0.100218,0.977599,-0.185084,-0.007398,0.020144,-0.003376,-0.3050,-0.2440,-0.1830,-0.036110,0.091173,-0.053738,-0.993728
152670.284000,-0.981000,-0.078180,-0.177561,0.062073,-0.993585,0.094533,-0.183812,0.081715,0.979559,4.7686,10.5919,176.3794,0.076660,0.994140,-0.174310,-0.121975,-0.999482,-0.103602,0.000068,-0.009596,0.019012,0.081715,0.979559,-0.183812,0.011082,0.017705,-0.004157,-0.3660,-0.1830,-0.0610,-0.035266,0.090866,-0.044317,-0.994251
152670.359000,-0.980921,-0.080352,-0.177022,0.061132,-0.991885,0.111477,-0.184543,0.098528,0.977873,5.7536,10.6345,176.4339,0.077140,0.994140,-0.174310,-0.124693,-1.000788,-0.086738,0.000352,0.007156,0.019066,0.098528,0.977873,-0.184543,-0.005248,0.019379,-0.003426,-0.5490,-0.0610,0.1830,-0.035591,0.090954,-0.052828,-0.993816
152670.434000,-0.981428,-0.079663,-0.174505,0.061977,-0.992585,0.104561,-0.181541,0.091804,0.979089,5.3567,10.4595,176.3866,0.079100,0.994140,-0.172360,-0.126750,-0.999889,-0.091850,0.000975,-0.001754,0.018853,0.091804,0.979089,-0.181541,0.003394,0.018105,-0.004489,-0.6710,0.0000,0.3050,-0.035620,0.089538,-0.049382,-0.994121
152670.509000,-0.980899,-0.080955,-0.176869,0.062699,-0.992336,0.106481,-0.184134,0.093357,0.978458,5.4502,10.6106,176.3426,0.077630,0.995110,-0.173330,-0.126050,-1.001072,-0.090990,-0.000712,0.001517,0.019879,0.093357,0.978458,-0.184134,0.000408,0.019738,-0.002867,-0.1830,-0.2440,-0.2440,-0.036132,0.090801,-0.050264,-0.993943
152670.585000,-0.981340,-0.078183,-0.175668,0.061191,-0.993089,0.100151,-0.182284,0.087533,0.979342,5.1075,10.5028,176.4320,0.078610,0.995110,-0.172850,-0.124579,-1.000733,-0.096504,0.000289,-0.005529,0.019843,0.087533,0.979342,-0.182284,0.007205,0.018828,-0.004239,-0.1830,-0.1830,-0.2440,-0.035047,0.090010,-0.047194,-0.994205
152670.660000,-0.981153,-0.077857,-0.176854,0.059558,-0.992525,0.106525,-0.183825,0.093984,0.978456,5.4866,10.5926,176.5263,0.079100,0.994620,-0.173330,-0.124393,-1.000938,-0.090658,-0.000384,0.000618,0.019508,0.093984,0.978456,-0.183825,0.001250,0.019221,-0.003173,-0.1830,-0.2440,-0.2440,-0.034561,0.090714,-0.050430,-0.993999
152670.735000,-0.981500,-0.076752,-0.175403,0.059398,-0.992995,0.102137,-0.182014,0.089828,0.979184,5.2415,10.4871,176.5368,0.078120,0.995110,-0.172360,-0.122819,-1.001104,-0.093602,0.000278,-0.002671,0.019725,0.089828,0.979184,-0.182014,0.004403,0.018993,-0.004022,-0.1830,-0.1830,-0.2440,-0.034236,0.089876,-0.048272,-0.994193
152670.810000,-0.981315,-0.074771,-0.177286,0.057283,-0.993155,0.101793,-0.183684,0.089736,0.978881,5.2378,10.5844,176.6592,0.078610,0.994620,-0.173330,-0.120781,-1.000953,-0.094856,-0.000456,-0.003247,0.019468,0.089736,0.978881,-0.183684,0.005006,0.018807,-0.003314,-0.2440,-0.1830,-0.1220,-0.033208,0.090773,-0.048164,-0.994152
152670.885000,-0.981355,-0.077268,-0.175990,0.058240,-0.992131,0.110833,-0.183169,0.098517,0.978133,5.7514,10.5544,176.6037,0.079100,0.994620,-0.172850,-0.124057,-1.001344,-0.085572,0.000104,0.005241,0.019403,0.098517,0.978133,-0.183169,-0.003296,0.019541,-0.003351,-0.1830,-0.2440,-0.1830,-0.034084,0.090338,-0.052657,-0.993934
152670.960000,-0.981399,-0.077068,-0.175832,0.059658,-0.992969,0.102242,-0.182476,0.089850,0.979096,5.2433,10.5140,176.5213,0.078120,0.994620,-0.172360,-0.123013,-1.000589,-0.093645,-0.000116,-0.002652,0.019248,0.089850,0.979096,-0.182476,0.004371,0.018595,-0.003556,-0.1220,-0.2440,-0.2440,-0.034382,0.090103,-0.048305,-0.994166
152671.035000,-0.981283,-0.074980,-0.177372,0.057778,-0.993284,0.100238,-0.183697,0.088114,0.979026,5.1429,10.5852,176.6303,0.077630,0.994620,-0.173330,-0.120009,-1.000830,-0.096315,-0.000498,-0.003922,0.019396,0.088114,0.979026,-0.183697,0.005642,0.018684,-0.003300,-0.1220,-0.2440,-0.2440,-0.033384,0.090795,-0.047364,-0.994182
152671.110000,-0.981356,-0.073524,-0.177581,0.055841,-0.993154,0.102601,-0.183909,0.090772,0.978743,5.2986,10.5975,176.7432,0.078120,0.994620,-0.173820,-0.118925,-1.001283,-0.094209,-0.000114,-0.001721,0.019531,0.090772,0.978743,-0.183909,0.003490,0.018960,-0.003576,-0.1830,-0.2440,-0.2440,-0.032532,0.090905,-0.048628,-0.994139
152671.185000,-0.981683,-0.071332,-0.176662,0.054272,-0.993547,0.099591,-0.182626,0.088179,0.979220,5.1456,10.5228,176.8356,0.077630,0.994620,-0.172850,-0.116620,-1.001203,-0.095731,0.000159,-0.003898,0.019304,0.088179,0.979220,-0.182626,0.005564,0.018486,-0.003893,-0.1220,-0.1830,-0.2440,-0.031581,0.090338,-0.047212,-0.994290
152671.260000,-0.981380,-0.076964,-0.175981,0.057030,-0.991651,0.115657,-0.183413,0.103467,0.977576,6.0417,10.5686,176.6742,0.078120,0.994620,-0.172360,-0.122883,-1.001795,-0.079913,-0.000258,0.011345,0.019189,0.103467,0.977576,-0.183413,-0.009245,0.020116,-0.002619,-0.1220,-0.2440,-0.2440,-0.033707,0.090408,-0.055122,-0.993807
152671.335000,-0.981343,-0.072233,-0.178183,0.056866,-0.994326,0.089896,-0.183665,0.078086,0.979882,4.5563,10.5833,176.6836,0.077140,0.994620,-0.173330,-0.116660,-1.000172,-0.106345,-0.001005,-0.013676,0.019277,0.078086,0.979882,-0.183665,0.015176,0.017839,-0.003332,0.1830,-0.3660,-0.5490,-0.032455,0.090969,-0.042231,-0.994428
152671.410000,-0.981342,-0.073140,-0.177814,0.054389,-0.992647,0.108138,-0.184415,0.096449,0.978105,5.6316,10.6271,176.8278,0.077630,0.995110,-0.173820,-0.118056,-1.002367,-0.088353,-0.000363,0.004657,0.019964,0.096449,0.978105,-0.184415,-0.002671,0.020095,-0.003072,0.1220,-0.3660,-0.4270,-0.032075,0.091105,-0.051456,-0.993994
152671.485000,-0.981559,-0.068770,-0.178363,0.052814,-0.994291,0.092717,-0.183721,0.081587,0.979587,4.7610,10.5866,176.9201,0.077140,0.994140,-0.173820,-0.113081,-1.000506,-0.103335,-0.000262,-0.010174,0.018945,0.081587,0.979587,-0.183721,0.011680,0.017662,-0.003761,-0.1220,-0.2440,-0.2440,-0.030567,0.091029,-0.043821,-0.994414
152671.561000,-0.981407,-0.072150,-0.177862,0.052714,-0.992345,0.111685,-0.184558,0.100233,0.977697,5.8535,10.6354,176.9255,0.077140,0.994140,-0.173820,-0.116517,-1.001876,-0.084534,-0.000106,0.008942,0.018957,0.100233,0.977697,-0.184558,-0.006966,0.019552,-0.002923,-0.1830,-0.2440,-0.2440,-0.031407,0.091160,-0.053304,-0.993913
152671.636000,-0.981466,-0.069217,-0.178700,0.052875,-0.994106,0.094646,-0.184198,0.083443,0.979341,4.8700,10.6144,176.9162,0.077630,0.994140,-0.174310,-0.113853,-1.000673,-0.102054,-0.000213,-0.008774,0.019088,0.083443,0.979341,-0.184198,0.010330,0.017901,-0.003771,-0.2440,-0.2440,-0.1830,-0.030697,0.091240,-0.044775,-0.994348
152671.711000,-0.981331,-0.074391,-0.177359,0.054502,-0.991929,0.114487,-0.184444,0.102683,0.977464,5.9970,10.6287,176.8211,0.077140,0.994620,-0.173820,-0.118862,-1.002288,-0.082000,0.000090,0.011485,0.019399,0.102683,0.977464,-0.184444,-0.009407,0.020260,-0.003040,-0.3050,-0.1830,-0.1220,-0.032424,0.091013,-0.054630,-0.993821
152671.786000,-0.981453,-0.073607,-0.177008,0.056557,-0.993427,0.099516,-0.183170,0.087659,0.979165,5.1157,10.5544,176.7019,0.078120,0.994140,-0.173330,-0.119166,-1.000437,-0.096882,0.000073,-0.004956,0.018959,0.087659,0.979165,-0.183170,0.006580,0.018058,-0.003825,-0.2440,-0.1830,-0.1830,-0.032730,0.090566,-0.047065,-0.994239
152671.861000,-0.981348,-0.073544,-0.177615,0.055657,-0.993053,0.103675,-0.184006,0.091855,0.978624,5.3622,10.6032,176.7539,0.077140,0.994140,-0.173330,-0.118028,-1.000910,-0.092502,-0.000478,0.000376,0.018902,0.091855,0.978624,-0.184006,0.001398,0.018622,-0.002988,0.0610,-0.2440,-0.3660,-0.032492,0.090941,-0.049172,-0.994111
152671.936000,-0.980936,-0.074495,-0.179485,0.056607,-0.993089,0.102807,-0.185903,0.090687,0.978374,5.2957,10.7138,176.6973,0.076170,0.994140,-0.174800,-0.117402,-1.000929,-0.095024,-0.001010,0.000179,0.019118,0.090687,0.978374,-0.185903,0.001631,0.018904,-0.002553,0.2440,-0.3050,-0.6100,-0.032972,0.091895,-0.048664,-0.994032
152672.011000,-0.981074,-0.073300,-0.179222,0.055849,-0.993363,0.100556,-0.185403,0.088643,0.978656,5.1755,10.6846,176.7419,0.076660,0.994140,-0.175290,-0.116664,-1.000887,-0.097638,-0.000169,-0.002480,0.019244,0.088643,0.978656,-0.185403,0.004181,0.018615,-0.003541,0.0000,-0.1830,-0.3660,-0.032478,0.091695,-0.047579,-0.994119
152672.086000,-0.981410,-0.072726,-0.177611,0.054875,-0.993121,0.103433,-0.183911,0.091764,0.978650,5.3567,10.5977,176.7997,0.077140,0.994620,-0.174310,-0.117082,-1.001575,-0.093505,0.000486,0.000236,0.019558,0.091764,0.978650,-0.183911,0.001525,0.019078,-0.004061,-0.3050,-0.0610,0.0000,-0.032089,0.090914,-0.049088,-0.994130
152672.161000,-0.981449,-0.072470,-0.177502,0.054758,-0.993201,0.102729,-0.183740,0.091104,0.978744,5.3179,10.5877,176.8066,0.077140,0.994620,-0.173820,-0.116936,-1.001490,-0.093685,0.000149,-0.000413,0.019463,0.091104,0.978744,-0.183740,0.002172,0.018981,-0.003745,-0.3660,-0.0610,0.0610,-0.031994,0.090841,-0.048743,-0.994157
152672.236000,-0.981329,-0.070897,-0.178792,0.053821,-0.993669,0.098618,-0.184651,0.087154,0.978932,5.0876,10.6408,176.8608,0.076170,0.993650,-0.174310,-0.114029,-1.000450,-0.098102,-0.000305,-0.003526,0.018540,0.087154,0.978932,-0.184651,0.005141,0.017857,-0.003314,-0.2440,-0.1830,-0.1220,-0.031361,0.091389,-0.046713,-0.994225
152672.311000,-0.981516,-0.072355,-0.177174,0.053661,-0.992688,0.108126,-0.183702,0.096620,0.978222,5.6409,10.5855,176.8707,0.078120,0.994620,-0.173820,-0.117845,-1.001950,-0.088285,0.000432,0.004244,0.019524,0.096620,0.978222,-0.183702,-0.002358,0.019481,-0.003782,-0.3660,-0.1830,0.0000,-0.031693,0.090761,-0.051493,-0.994035
152672.386000,-0.981653,-0.071003,-0.176966,0.053871,-0.993548,0.099803,-0.182910,0.088439,0.979144,5.1611,10.5393,176.8589,0.078120,0.994140,-0.172850,-0.116685,-1.000768,-0.095614,-0.000070,-0.004140,0.018870,0.088439,0.979144,-0.182910,0.005787,0.018076,-0.003606,-0.1220,-0.1830,-0.2440,-0.031398,0.090487,-0.047331,-0.994277
152672.461000,-0.981020,-0.073893,-0.179275,0.055075,-0.992649,0.107771,-0.185921,0.095852,0.977878,5.5982,10.7148,176.7868,0.076660,0.994140,-0.174310,-0.117416,-1.001396,-0.089417,-0.001241,0.005008,0.019044,0.095852,0.977878,-0.185921,-0.003054,0.019385,-0.002048,0.3050,-0.2440,-0.6710,-0.032439,0.091857,-0.051217,-0.993925
152672.536000,-0.980913,-0.069962,-0.181424,0.053747,-0.994233,0.092804,-0.186870,0.081281,0.979016,4.7460,10.7702,176.8637,0.076170,0.994140,-0.176260,-0.112290,-1.000670,-0.105990,-0.001110,-0.009480,0.019358,0.081281,0.979016,-0.186870,0.011077,0.018273,-0.003038,0.3660,-0.0610,-0.9760,-0.031106,0.092606,-0.043773,-0.994254
152672.612000,-0.981225,-0.071762,-0.179019,0.052903,-0.992744,0.107987,-0.185470,0.096489,0.977901,5.6351,10.6885,176.9139,0.075680,0.994140,-0.175290,-0.114221,-1.001852,-0.089529,0.000271,0.006527,0.019159,0.096489,0.977901,-0.185470,-0.004650,0.019392,-0.003474,0.0000,0.0610,-0.6100,-0.031356,0.091675,-0.051429,-0.993966
152672.687000,-0.981061,-0.069636,-0.180746,0.053027,-0.994049,0.095156,-0.186297,0.083769,0.978916,4.8911,10.7368,176.9061,0.075680,0.994620,-0.176260,-0.111650,-1.001460,-0.103324,-0.000427,-0.006454,0.019815,0.083769,0.978916,-0.186297,0.008106,0.018860,-0.003615,-0.2440,-0.0610,-0.1830,-0.030844,0.092293,-0.044990,-0.994237
152672.762000,-0.981081,-0.074294,-0.178773,0.054838,-0.992260,0.111417,-0.185667,0.099505,0.977562,5.8121,10.7000,176.8007,0.075190,0.994620,-0.175290,-0.116325,-1.002328,-0.086347,0.000209,0.010160,0.019562,0.099505,0.977562,-0.185667,-0.008150,0.020218,-0.003280,-0.2440,-0.1220,-0.1830,-0.032483,0.091674,-0.053057,-0.993844
152672.837000,-0.980997,-0.072146,-0.180111,0.055841,-0.994003,0.094020,-0.185814,0.082176,0.979143,4.7974,10.7086,176.7421,0.075190,0.994140,-0.175780,-0.113824,-1.000506,-0.104391,-0.000387,-0.007623,0.019213,0.082176,0.979143,-0.185814,0.009184,0.018165,-0.003616,-0.1830,-0.1830,-0.2440,-0.032182,0.092010,-0.044304,-0.994251
152672.912000,-0.981310,-0.074568,-0.177400,0.055802,-0.992527,0.108522,-0.184167,0.096594,0.978137,5.6399,10.6125,176.7454,0.076170,0.995600,-0.174310,-0.118064,-1.002826,-0.088358,0.000406,0.006251,0.020425,0.096594,0.978137,-0.184167,-0.004262,0.020585,-0.003811,-0.2440,-0.1830,-0.2440,-0.032790,0.090939,-0.051590,-0.993979
152672.987000,-0.982548,-0.072111,-0.171464,0.053737,-0.992534,0.109492,-0.178080,0.098367,0.979087,5.7371,10.2579,176.8695,0.086420,0.995110,-0.169430,-0.127619,-1.001588,-0.083391,0.001420,-0.002306,0.019791,0.098367,0.979087,-0.178080,0.004133,0.018882,-0.005043,-0.3660,0.0610,-0.3050,-0.031644,0.087891,-0.052265,-0.994255
152673.062000,-0.979567,-0.072130,-0.187737,0.056941,-0.994745,0.085083,-0.192888,0.072655,0.978527,4.2464,11.1214,176.6732,0.065420,0.993160,-0.179680,-0.101987,-0.999504,-0.116283,-0.003632,-0.007405,0.018401,0.072655,0.978527,-0.192888,0.008965,0.018058,-0.000413,-0.2440,0.0610,-0.4270,-0.032460,0.095722,-0.039669,-0.994088
152673.137000,-0.981263,-0.076898,-0.176663,0.057090,-0.991770,0.114598,-0.184021,0.102365,0.977577,5.9778,10.6041,176.6703,0.074700,0.994620,-0.174800,-0.118904,-1.002202,-0.082812,0.001669,0.013485,0.019394,0.102365,0.977577,-0.184021,-0.011517,0.020210,-0.004437,-0.0610,-0.2440,-0.3660,-0.033706,0.090733,-0.054579,-0.993807
152673.212000,-0.980905,-0.072484,-0.180475,0.057600,-0.994594,0.086395,-0.185761,0.074350,0.979778,4.3396,10.7055,176.6394,0.073730,0.994140,-0.175290,-0.112746,-0.999664,-0.111527,-0.001174,-0.014109,0.018949,0.074350,0.979778,-0.185761,0.015527,0.017559,-0.003181,-0.0610,-0.3050,-0.3660,-0.032704,0.092075,-0.040413,-0.994394
152673.287000,-0.980828,-0.076042,-0.179429,0.056586,-0.992189,0.111167,-0.186481,0.098883,0.977470,5.7765,10.7475,176.6981,0.074700,0.994620,-0.175780,-0.117361,-1.002165,-0.087399,-0.000141,0.010037,0.019626,0.098883,0.977470,-0.186481,-0.008007,0.020325,-0.002953,-0.0610,-0.3050,-0.3660,-0.033364,0.092049,-0.052841,-0.993792
152673.362000,-0.980939,-0.074296,-0.179551,0.057772,-0.993745,0.095571,-0.185528,0.083376,0.979095,4.8674,10.6919,176.6295,0.075190,0.994140,-0.175780,-0.116056,-1.000377,-0.103167,-0.000035,-0.006418,0.019221,0.083376,0.979095,-0.185528,0.007983,0.018212,-0.003903,-0.2440,-0.1830,-0.2440,-0.033209,0.091802,-0.044998,-0.994206
152673.437000,-0.980797,-0.077737,-0.178872,0.058984,-0.992413,0.107877,-0.185901,0.095255,0.977940,5.5632,10.7136,176.5585,0.073730,0.994140,-0.175290,-0.118241,-1.001158,-0.090433,-0.000068,0.007250,0.019022,0.095255,0.977940,-0.185901,-0.005377,0.019396,-0.003042,-0.1830,-0.1830,-0.1830,-0.034391,0.091755,-0.051096,-0.993875
152673.512000,-0.980881,-0.073260,-0.180293,0.057762,-0.994287,0.089764,-0.185839,0.077634,0.979508,4.5317,10.7101,176.6299,0.074210,0.994140,-0.175780,-0.113930,-0.999952,-0.108790,-0.000624,-0.011274,0.019112,0.077634,0.979508,-0.185839,0.012739,0.017821,-0.003591,0.0000,-0.3660,-0.4880,-0.032943,0.092056,-0.042089,-0.994318
152673.588000,-0.981083,-0.074057,-0.178864,0.055839,-0.992921,0.104829,-0.185361,0.092858,0.978273,5.4223,10.6822,176.7425,0.074210,0.994620,-0.175290,-0.115112,-1.001811,-0.092878,0.000209,0.004319,0.019538,0.092858,0.978273,-0.185361,-0.002489,0.019528,-0.003585,-0.1830,-0.2440,-0.1830,-0.032669,0.091604,-0.049719,-0.994017
152673.663000,-0.981219,-0.072392,-0.178798,0.055721,-0.993765,0.096570,-0.184674,0.084794,0.979135,4.9495,10.6421,176.7498,0.074700,0.994140,-0.174800,-0.114011,-1.000660,-0.100651,0.000023,-0.004464,0.019008,0.084794,0.979135,-0.184674,0.006046,0.018176,-0.003782,-0.2440,-0.1830,-0.0610,-0.032214,0.091393,-0.045603,-0.994248
152673.738000,-0.980861,-0.075638,-0.179419,0.056912,-0.992595,0.107316,-0.186207,0.095051,0.977902,5.5516,10.7315,176.6793,0.074700,0.993650,-0.175290,-0.116977,-1.000852,-0.090879,-0.000397,0.006052,0.018618,0.095051,0.977902,-0.186207,-0.004207,0.018927,-0.002733,-0.1220,-0.3050,-0.3050,-0.033341,0.091967,-0.050902,-0.993901
152673.813000,-0.981056,-0.073544,-0.179222,0.057223,-0.993870,0.094597,-0.185080,0.082549,0.979250,4.8186,10.6658,176.6618,0.074210,0.994620,-0.175290,-0.114536,-1.000858,-0.103282,-0.000108,-0.006238,0.019528,0.082549,0.979250,-0.185080,0.007820,0.018552,-0.003866,-0.1220,-0.3050,-0.3660,-0.032881,0.091602,-0.044542,-0.994255
152673.888000,-0.980964,-0.075164,-0.179055,0.056965,-0.992871,0.104700,-0.185648,0.092507,0.978252,5.4020,10.6989,176.6765,0.074210,0.994620,-0.175290,-0.116170,-1.001655,-0.093246,-0.000105,0.003981,0.019539,0.092507,0.978252,-0.185648,-0.002137,0.019550,-0.003298,-0.1830,-0.2440,-0.1830,-0.033232,0.091727,-0.049599,-0.993993
152673.963000,-0.980992,-0.075005,-0.178967,0.057878,-0.993395,0.099079,-0.185217,0.086837,0.978853,5.0696,10.6738,176.6235,0.074210,0.994620,-0.175290,-0.116030,-1.001123,-0.098958,0.000002,-0.001847,0.019545,0.086837,0.978853,-0.185217,0.003532,0.018948,-0.003729,-0.2440,-0.1830,-0.1220,-0.033417,0.091583,-0.046753,-0.994138
152674.038000,-0.981059,-0.077293,-0.177618,0.058895,-0.992554,0.106624,-0.184537,0.094144,0.978306,5.4967,10.6341,176.5646,0.075190,0.994620,-0.174310,-0.119683,-1.001371,-0.090767,0.000129,0.004668,0.019412,0.094144,0.978306,-0.184537,-0.002816,0.019466,-0.003434,-0.1830,-0.1830,-0.3050,-0.034253,0.091088,-0.050496,-0.993972
152674.113000,-0.980545,-0.078031,-0.180119,0.061140,-0.993356,0.097500,-0.186530,0.084591,0.978801,4.9394,10.7503,176.4320,0.071770,0.993160,-0.175780,-0.116209,-0.999312,-0.101429,-0.000594,-0.001747,0.018058,0.084591,0.978801,-0.186530,0.003309,0.017612,-0.002893,-0.3050,-0.1220,-0.1830,-0.035000,0.092209,-0.045794,-0.994070
152674.188000,-0.981093,-0.080764,-0.175882,0.061493,-0.991759,0.112393,-0.183510,0.099452,0.977974,5.8066,10.5743,176.4135,0.077630,0.994140,-0.173820,-0.125881,-1.000710,-0.085368,0.000968,0.007567,0.019002,0.099452,0.977974,-0.183510,-0.005693,0.019264,-0.003972,-0.3660,-0.1830,0.0000,-0.035785,0.090405,-0.053290,-0.993834
152674.263000,-0.980985,-0.075453,-0.178818,0.060352,-0.994252,0.088439,-0.184463,0.075966,0.979899,4.4329,10.6298,176.4795,0.075190,0.994140,-0.174310,-0.117601,-0.999303,-0.109156,-0.000831,-0.013938,0.018860,0.075966,0.979899,-0.184463,0.015353,0.017397,-0.003505,-0.1830,-0.1830,-0.1830,-0.034143,0.091334,-0.041334,-0.994376
152674.338000,-0.981071,-0.079947,-0.176377,0.059617,-0.991258,0.117699,-0.184245,0.104956,0.977261,6.1300,10.6171,176.5226,0.078120,0.995110,-0.173820,-0.125539,-1.002212,-0.079818,0.000345,0.012861,0.019928,0.104956,0.977261,-0.184245,-0.010685,0.020928,-0.003243,-0.3050,-0.1220,-0.1830,-0.035113,0.090729,-0.056018,-0.993679
152674.413000,-0.981006,-0.075234,-0.178792,0.060834,-0.994547,0.084709,-0.184190,0.072223,0.980233,4.2139,10.6139,176.4515,0.071770,0.993650,-0.174310,-0.113998,-0.998631,-0.112319,-0.000453,-0.014379,0.018150,0.072223,0.980233,-0.184190,0.015646,0.016654,-0.003773,-0.3660,-0.0610,-0.1220,-0.034207,0.091251,-0.039452,-0.994458
152674.488000,-0.979543,-0.080341,-0.184504,0.059924,-0.991708,0.113688,-0.192107,0.100306,0.976234,5.8664,11.0758,176.4992,0.075680,1.011710,-0.183590,-0.121540,-1.019657,-0.092285,-0.001373,0.011906,0.037830,0.100306,0.976234,-0.192107,-0.007902,0.038538,-0.005209,-0.1830,-0.1830,-0.3050,-0.035299,0.094777,-0.053853,-0.993414
152674.564000,-0.985985,-0.073327,-0.149854,0.059359,-0.993643,0.095652,-0.155915,0.085416,0.984070,4.9608,8.9699,176.5548,0.079100,0.960930,-0.149900,-0.125991,-0.964465,-0.077766,0.009811,-0.010833,-0.017742,0.085416,0.984070,-0.155915,0.008529,-0.019966,-0.007551,-1.4030,-0.3660,-1.2810,-0.033323,0.076791,-0.045474,-0.995452
152674.639000,-0.978503,-0.075153,-0.192051,0.056875,-0.993462,0.098983,-0.198234,0.085932,0.976381,5.0297,11.4337,176.6735,0.071280,1.011710,-0.184570,-0.110334,-1.019311,-0.107403,-0.007495,0.001748,0.037778,0.085932,0.976381,-0.198234,0.002073,0.038498,-0.000056,1.0370,1.7080,-0.0610,-0.033222,0.098207,-0.046530,-0.993522
152674.714000,-0.981403,-0.072210,-0.177859,0.055670,-0.993795,0.096298,-0.183709,0.084606,0.979333,4.9376,10.5859,176.7534,0.070310,0.994140,-0.177240,-0.109266,-1.001125,-0.102384,0.003685,-0.000530,0.019199,0.084606,0.979333,-0.183709,0.001885,0.018095,-0.007173,-0.1220,1.4030,-0.6100,-0.032153,0.090910,-0.045485,-0.994300
152674.789000,-0.981339,-0.073261,-0.177782,0.055341,-0.993063,0.103749,-0.184150,0.091974,0.978586,5.3693,10.6116,176.7723,0.074210,0.994620,-0.173820,-0.114790,-1.001647,-0.092284,-0.000022,0.003442,0.019256,0.091974,0.978586,-0.184150,-0.001645,0.019205,-0.003334,-0.2440,0.0000,-0.1830,-0.032341,0.091019,-0.049221,-0.994106
152674.864000,-0.981444,-0.071217,-0.178036,0.055051,-0.994035,0.094152,-0.183679,0.082604,0.979509,4.8205,10.5841,176.7896,0.073730,0.995110,-0.173820,-0.112284,-1.001480,-0.101601,-0.000123,-0.005650,0.019691,0.082604,0.979509,-0.183679,0.007251,0.018778,-0.003808,-0.1830,-0.2440,-0.1830,-0.031746,0.090942,-0.044440,-0.994358
152674.939000,-0.981672,-0.069439,-0.177475,0.052153,-0.993592,0.100276,-0.183301,0.089183,0.979003,5.2050,10.5621,176.9589,0.076170,0.995110,-0.173330,-0.113112,-1.002142,-0.094906,0.000003,-0.001359,0.019777,0.089183,0.979003,-0.183301,0.003114,0.019225,-0.003699,-0.1220,-0.1830,-0.3050,-0.030573,0.090714,-0.047638,-0.994267
152675.014000,-0.981401,-0.065963,-0.180283,0.050081,-0.994566,0.091272,-0.185323,0.080546,0.979371,4.7016,10.6800,177.0787,0.072750,0.994140,-0.174800,-0.105460,-1.001049,-0.104603,-0.000719,-0.006802,0.018864,0.080546,0.979371,-0.185323,0.008332,0.017984,-0.003131,-0.1220,0.1830,-0.3050,-0.029174,0.091916,-0.043196,-0.994402
152675.089000,-0.981858,-0.069371,-0.176470,0.050425,-0.992688,0.109675,-0.182788,0.098786,0.978177,5.7668,10.5322,177.0601,0.075680,0.995110,-0.172850,-0.112836,-1.002975,-0.084608,0.000612,0.008957,0.019613,0.098786,0.978177,-0.182788,-0.006996,0.020059,-0.003734,-0.1830,-0.2440,-0.1220,-0.030128,0.090350,-0.052426,-0.994073
152675.164000,-0.981538,-0.065438,-0.179723,0.050124,-0.994817,0.088469,-0.184581,0.077827,0.979731,4.5419,10.6367,177.0766,0.072750,0.995110,-0.174310,-0.105198,-1.001727,-0.106759,-0.000733,-0.009525,0.019692,0.077827,0.979731,-0.184581,0.011056,0.018582,-0.003393,-0.1220,0.3660,-0.4270,-0.029051,0.091580,-0.041804,-0.994496
152675.239000,-0.981555,-0.069124,-0.178247,0.050258,-0.992851,0.108266,-0.184457,0.097311,0.978011,5.6821,10.6294,177.0689,0.073240,0.993650,-0.173820,-0.109591,-1.001684,-0.086815,0.000158,0.009807,0.018206,0.097311,0.978011,-0.184457,-0.007976,0.018839,-0.003020,-0.2440,0.0610,-0.1830,-0.030025,0.091220,-0.051703,-0.994034
152675.314000,-0.982281,-0.067108,-0.174986,0.049866,-0.993622,0.101140,-0.180657,0.090622,0.979362,5.2866,10.4080,177.0939,0.080560,0.994140,-0.171380,-0.115858,-1.001115,-0.092306,0.000803,-0.004400,0.018764,0.090622,0.979362,-0.180657,0.006018,0.017791,-0.004398,-0.2440,-0.2440,-0.1220,-0.029408,0.089412,-0.048211,-0.994392
152675.389000,-0.981387,-0.063628,-0.181193,0.048457,-0.995032,0.086963,-0.185826,0.076564,0.979595,4.4691,10.7093,177.1732,0.070310,0.994620,-0.174800,-0.100615,-1.001473,-0.108147,-0.001361,-0.008357,0.019162,0.076564,0.979595,-0.185826,0.009869,0.018291,-0.002630,-0.1220,0.0610,-0.3050,-0.028177,0.092264,-0.041108,-0.994487
152675.464000,-0.981987,-0.065271,-0.177317,0.046845,-0.993242,0.106187,-0.183050,0.095968,0.978408,5.6020,10.5474,177.2688,0.075190,0.995110,-0.173330,-0.108053,-1.003268,-0.087852,0.000664,0.006548,0.019690,0.095968,0.978408,-0.183050,-0.004658,0.019842,-0.003950,-0.1830,-0.1830,-0.1830,-0.028193,0.090618,-0.050834,-0.994188
152675.539000,-0.981681,-0.065351,-0.178974,0.048757,-0.994225,0.095599,-0.184188,0.085122,0.979198,4.9682,10.6138,177.1567,0.073730,0.995110,-0.173820,-0.106301,-1.002386,-0.099079,-0.000488,-0.003043,0.019702,0.085122,0.979198,-0.184188,0.004734,0.019089,-0.003299,-0.1830,-0.2440,-0.2440,-0.028688,0.091304,-0.045436,-0.994372
152675.615000,-0.981724,-0.068106,-0.177704,0.049867,-0.993204,0.105161,-0.183658,0.094378,0.978449,5.5095,10.5829,177.0921,0.074210,0.994620,-0.173330,-0.109792,-1.002388,-0.089354,0.000117,0.005902,0.019151,0.094378,0.978449,-0.183658,-0.004063,0.019338,-0.003338,-0.1830,-0.1830,-0.1830,-0.029667,0.090872,-0.050178,-0.994155
152675.690000,-0.981673,-0.068168,-0.177962,0.051362,-0.993919,0.097397,-0.183519,0.086472,0.979205,5.0466,10.5748,177.0050,0.074210,0.994620,-0.173330,-0.109805,-1.001642,-0.097338,-0.000156,-0.002189,0.019165,0.086472,0.979205,-0.183519,0.003843,0.018582,-0.003476,-0.1830,-0.2440,-0.2440,-0.030053,0.090885,-0.046229,-0.994334
152675.765000,-0.981493,-0.071484,-0.177658,0.052951,-0.992853,0.106955,-0.184034,0.095569,0.978263,5.5797,10.6048,176.9119,0.074700,0.994140,-0.173330,-0.113589,-1.001618,-0.088301,-0.000137,0.006615,0.018712,0.095569,0.978263,-0.184034,-0.004770,0.019037,-0.002959,-0.1830,-0.1830,-0.2440,-0.031295,0.090964,-0.050934,-0.994058
152675.840000,-0.981853,-0.071960,-0.175459,0.054119,-0.993058,0.104432,-0.181755,0.093042,0.978932,5.4293,10.4720,176.8451,0.078610,0.994140,-0.171870,-0.118565,-1.000934,-0.090040,0.000393,0.000064,0.018726,0.093042,0.978932,-0.181755,0.001650,0.018269,-0.003786,-0.1830,-0.1830,-0.2440,-0.031703,0.089823,-0.049656,-0.994214
152675.915000,-0.980775,-0.073524,-0.180763,0.056676,-0.993701,0.096674,-0.186732,0.084570,0.978764,4.9384,10.7621,176.6927,0.070310,0.994140,-0.175290,-0.110366,-1.000839,-0.100622,-0.001342,-0.000177,0.018824,0.084570,0.978764,-0.186732,0.001867,0.018650,-0.002209,-0.1220,0.0000,-0.2440,-0.032742,0.092416,-0.045578,-0.994138
152675.990000,-0.982553,-0.072289,-0.171362,0.053814,-0.992461,0.110112,-0.178030,0.098970,0.979035,5.7724,10.2550,176.8651,0.082030,0.996090,-0.169920,-0.123487,-1.002877,-0.082379,0.002122,0.002749,0.020498,0.098970,0.979035,-0.178030,-0.000853,0.020007,-0.005586,-0.1830,0.0610,-0.3050,-0.031708,0.087854,-0.052573,-0.994240
152676.065000,-0.981300,-0.071171,-0.178841,0.054718,-0.993943,0.095307,-0.184541,0.083739,0.979251,4.8877,10.6344,176.8085,0.074210,0.994620,-0.172850,-0.112697,-1.001009,-0.099670,-0.001841,-0.004866,0.019062,0.083739,0.979251,-0.184541,0.006563,0.018532,-0.001977,-0.3050,0.9150,-0.4880,-0.031653,0.091367,-0.045018,-0.994296
152676.140000,-0.981001,-0.073229,-0.179650,0.055693,-0.993348,0.100788,-0.185835,0.088868,0.978554,5.1891,10.7098,176.7507,0.068840,0.994140,-0.175290,-0.108841,-1.001360,-0.095977,-0.000061,0.005614,0.018717,0.088868,0.978554,-0.185835,-0.003909,0.018893,-0.003106,-0.3660,0.9760,-0.4880,-0.032422,0.091914,-0.047695,-0.994095
152676.215000,-0.984572,-0.070894,-0.159975,0.051116,-0.990899,0.124524,-0.167347,0.114426,0.979235,6.6649,9.6336,177.0280,0.094230,0.997550,-0.160640,-0.137798,-1.003658,-0.058928,0.003898,0.006469,0.021168,0.114426,0.979235,-0.167347,-0.004265,0.020910,-0.007050,-0.4270,1.4030,-0.5490,-0.030677,0.082298,-0.060079,-0.994322
152676.290000,-0.986255,-0.057670,-0.154839,0.039832,-0.992458,0.115931,-0.160357,0.108170,0.981114,6.2916,9.2276,177.6873,0.104000,0.993650,-0.152340,-0.136286,-0.999675,-0.058657,0.002712,-0.009933,0.016771,0.108170,0.981114,-0.160357,0.011516,0.014883,-0.005759,-0.7320,5.4320,-0.9760,-0.024499,0.079198,-0.056309,-0.994966
152676.365000,-0.978456,-0.045440,-0.201395,0.035543,-0.997989,0.052490,-0.203375,0.044201,0.978103,2.5875,11.7344,177.9196,0.027830,0.982420,-0.197750,-0.032046,-0.989835,-0.155656,0.005881,0.000288,0.010211,0.044201,0.978103,-0.203375,-0.000103,0.008818,-0.007821,-0.1830,9.5210,-1.0980,-0.020362,0.101772,-0.024311,-0.994302
152676.440000,-0.981906,-0.051404,-0.182260,0.030461,-0.992794,0.115901,-0.186904,0.108253,0.976396,6.3265,10.7722,178.2231,0.074210,1.006340,-0.176750,-0.092383,-1.017313,-0.077509,-0.001609,0.021212,0.031015,0.108253,0.976396,-0.186904,-0.017619,0.033035,-0.003571,0.9150,2.6240,0.0610,-0.020592,0.092860,-0.056384,-0.993868
152676.515000,-0.982992,-0.045830,-0.177838,0.031306,-0.996004,0.083638,-0.180961,0.076648,0.980499,4.4699,10.4257,178.1759,0.077140,0.994140,-0.171870,-0.090825,-1.002128,-0.106279,0.000767,-0.015243,0.018507,0.076648,0.980499,-0.180961,0.016566,0.016735,-0.004580,0.0000,-0.3660,-0.0610,-0.019382,0.090157,-0.040276,-0.994924
152676.591000,-0.982552,-0.052393,-0.178455,0.032576,-0.993149,0.112222,-0.183112,0.104451,0.977528,6.0990,10.5511,178.1011,0.076170,0.995110,-0.171870,-0.096307,-1.005099,-0.078015,-0.000661,0.014353,0.019397,0.104451,0.977528,-0.183112,-0.012194,0.020690,-0.002435,-0.0610,-0.3660,-0.1220,-0.021368,0.090925,-0.054488,-0.994136
152676.666000,-0.982945,-0.047702,-0.177604,0.032421,-0.995595,0.087971,-0.181018,0.080713,0.980162,4.7075,10.4291,178.1109,0.078610,0.995110,-0.171380,-0.094300,-1.003255,-0.101892,0.000110,-0.012471,0.019500,0.080713,0.980162,-0.181018,0.013984,0.017997,-0.004042,-0.1830,-0.3050,-0.0610,-0.020135,0.090122,-0.042390,-0.994824
152676.741000,-0.982773,-0.050844,-0.177686,0.031695,-0.993537,0.108992,-0.182080,0.101482,0.978033,5.9239,10.4909,178.1528,0.078610,0.994620,-0.171380,-0.097374,-1.004379,-0.080992,-0.000218,0.008797,0.019062,0.101482,0.978033,-0.182080,-0.006795,0.019640,-0.002978,-0.1830,-0.1220,-0.2440,-0.020754,0.090459,-0.052921,-0.994276
152676.816000,-0.982538,-0.048184,-0.179714,0.032005,-0.995257,0.091865,-0.183288,0.084510,0.979420,4.9316,10.5614,178.1343,0.078610,0.995110,-0.172850,-0.094122,-1.003753,-0.099605,-0.000684,-0.008561,0.019822,0.084510,0.979420,-0.183288,0.010228,0.018750,-0.003235,-0.0610,-0.3050,-0.2440,-0.020155,0.091240,-0.044331,-0.994637
152676.891000,-0.982945,-0.050637,-0.176793,0.032093,-0.993825,0.106221,-0.181080,0.098736,0.978500,5.7619,10.4327,178.1300,0.077630,0.995600,-0.171380,-0.096422,-1.005164,-0.083451,0.000604,0.006998,0.019960,0.098736,0.978500,-0.181080,-0.005015,0.020167,-0.003984,-0.3050,0.0000,-0.2440,-0.020799,0.089973,-0.051528,-0.994393
152676.966000,-0.982793,-0.050097,-0.177784,0.033230,-0.994767,0.096617,-0.181694,0.089046,0.979315,5.1955,10.4685,178.0635,0.078120,0.995110,-0.171380,-0.096160,-1.003865,-0.093418,-0.000302,-0.003421,0.019536,0.089046,0.979315,-0.181694,0.005158,0.018855,-0.003366,-0.1830,-0.2440,-0.2440,-0.020945,0.090358,-0.046668,-0.994595
152677.041000,-0.982622,-0.052466,-0.178047,0.034124,-0.993933,0.104560,-0.182452,0.096667,0.978451,5.6423,10.5126,178.0111,0.077630,0.994620,-0.171870,-0.097864,-1.003907,-0.086183,-0.000234,0.004841,0.019112,0.096667,0.978451,-0.182452,-0.002952,0.019248,-0.003092,-0.1830,-0.2440,-0.1830,-0.021770,0.090636,-0.050592,-0.994360
152677.116000,-0.982834,-0.052105,-0.176979,0.034973,-0.994514,0.098584,-0.181145,0.090702,0.979265,5.2918,10.4364,177.9621,0.078610,0.995600,-0.171380,-0.098806,-1.004284,-0.091763,0.000213,-0.002209,0.020051,0.090702,0.979265,-0.181145,0.004005,0.019380,-0.003919,-0.1830,-0.1830,-0.1830,-0.021889,0.090020,-0.047580,-0.994562
152677.191000,-0.982709,-0.052247,-0.177631,0.034930,-0.994448,0.099259,-0.181831,0.091338,0.979079,5.3297,10.4764,177.9643,0.077140,0.994620,-0.171380,-0.097330,-1.003415,-0.090974,-0.000237,-0.000124,0.018995,0.091338,0.979079,-0.181831,0.001871,0.018628,-0.003226,-0.1830,-0.2440,-0.1830,-0.021915,0.090361,-0.047912,-0.994514
152677.266000,-0.981795,-0.052412,-0.182571,0.032237,-0.993211,0.111770,-0.187190,0.103850,0.976819,6.0686,10.7888,178.1194,0.087400,0.992180,-0.175780,-0.105718,-1.002274,-0.085028,-0.001130,0.002215,0.018240,0.103850,0.976819,-0.187190,-0.000246,0.018272,-0.002233,-0.2440,-0.1220,-0.1830,-0.021291,0.093002,-0.054233,-0.993960
152677.341000,-0.983954,-0.046780,-0.172182,0.033523,-0.996302,0.079115,-0.175246,0.072073,0.981883,4.1981,10.0930,178.0487,0.068840,0.996090,-0.166990,-0.085580,-1.003310,-0.104237,0.001766,-0.011452,0.018988,0.072073,0.981883,-0.175246,0.012695,0.017434,-0.005449,0.0000,0.7320,-0.5490,-0.020172,0.087271,-0.037977,-0.995256
152677.416000,-0.981451,-0.053074,-0.184219,0.032680,-0.993167,0.112030,-0.188907,0.103932,0.976480,6.0754,10.8890,178.0929,0.078610,1.005850,-0.178710,-0.097615,-1.016429,-0.084817,-0.002045,0.012280,0.031366,0.103932,0.976480,-0.188907,-0.008828,0.032381,-0.003517,0.0000,-0.0610,-0.2440,-0.021571,0.093857,-0.054324,-0.993868
152677.491000,-0.985037,-0.051310,-0.164528,0.035853,-0.994776,0.095578,-0.168572,0.088249,0.981731,5.1366,9.7048,177.9155,0.077140,0.979000,-0.160150,-0.099869,-0.986427,-0.083832,0.004841,-0.004477,0.001662,0.088249,0.981731,-0.168572,0.004352,0.000407,-0.005209,-1.2200,-0.3660,-1.0370,-0.021896,0.083678,-0.046179,-0.995181
