timestamp,r00,r01,r02,r10,r11,r12,r20,r21,r22,roll,pitch,yaw,accel_body_x,accel_body_y,accel_body_z,accel_earth_x,accel_earth_y,accel_earth_z,earth_accel_x,earth_accel_y,earth_accel_z,gravity_body_x,gravity_body_y,gravity_body_z,linear_accel_x,linear_accel_y,linear_accel_z,gyro_x,gyro_y,gyro_z,qw,qx,qy,qz
152650.465000,0.273144,0.374238,-0.886193,-0.195134,0.923628,0.329902,0.941974,0.082816,0.325309,0.2493,-1.2285,-0.6203,0.074700,0.247550,0.761230,-0.561551,0.465198,0.338502,0.001571,-0.016429,-0.210054,0.082816,0.325309,0.941974,-0.031982,-0.075144,-0.194231,10.6810,-17.7000,-44.1890,0.794053,-0.077793,-0.575581,-0.179261
152650.540000,0.249972,0.506634,-0.825128,-0.209425,0.860300,0.464785,0.945333,0.056619,0.321152,0.1745,-1.2386,-0.6974,-0.117670,0.214350,0.911130,-0.672616,0.632528,0.193511,-0.032310,-0.212260,-0.089415,0.056619,0.321152,0.945333,-0.204039,-0.100711,-0.048151,7.5680,-69.8240,-104.1250,0.779651,-0.130881,-0.567709,-0.229609
152650.615000,0.101051,0.536003,-0.838147,-0.314776,0.816405,0.484148,0.943772,0.214904,0.251219,0.7076,-1.2339,-1.2602,0.187980,0.090820,0.918450,-0.702120,0.459640,0.427660,0.099535,-0.112276,-0.089025,0.214904,0.251219,0.943772,-0.057444,-0.160148,-0.038620,-23.5590,-105.9570,-18.1270,0.736321,-0.091415,-0.605007,-0.288861
152650.690000,-0.035904,0.519795,-0.853536,-0.496340,0.732026,0.466675,0.867385,0.440400,0.231712,1.0865,-1.0499,-1.6430,0.708490,0.268550,0.758300,-0.533083,0.198813,0.908511,0.112169,0.254579,0.008582,0.440400,0.231712,0.867385,0.248442,0.025054,-0.122941,-21.9110,-111.1450,-1.9530,0.694232,-0.009462,-0.619721,-0.365920
152650.765000,-0.092412,0.504314,-0.858561,-0.601956,0.658550,0.451620,0.793164,0.558552,0.242717,1.1609,-0.9160,-1.7231,0.893060,0.386230,0.718260,-0.504418,0.041149,1.098406,0.060377,0.321382,0.138231,0.558552,0.242717,0.793164,0.319304,0.126856,-0.089398,-14.8920,-34.3620,-3.6620,0.672468,0.039753,-0.614053,-0.411272
152650.840000,-0.055093,0.534849,-0.843150,-0.512203,0.709721,0.483677,0.857095,0.458511,0.234851,1.0974,-1.0296,-1.6779,0.512690,0.302240,0.798820,-0.540118,0.338276,0.765608,-0.028489,0.089213,-0.033080,0.458511,0.234851,0.857095,0.032912,0.059402,-0.072478,-21.7890,63.1100,3.7840,0.687292,-0.009154,-0.618458,-0.380862
152650.915000,-0.063835,0.533691,-0.843267,-0.364288,0.774220,0.517569,0.929096,0.340231,0.144995,1.1679,-1.1920,-1.7443,0.173330,-0.166990,0.985350,-0.931099,0.317557,0.247096,0.149267,-0.334573,-0.073238,0.340231,0.144995,0.929096,-0.204288,-0.309656,0.044307,-33.8740,69.0300,-3.1730,0.681062,-0.065096,-0.650588,-0.329625
152650.990000,-0.090769,0.537599,-0.838301,-0.331160,0.777577,0.534515,0.939198,0.326130,0.107452,1.2525,-1.2203,-1.8383,0.322260,-0.019040,0.989740,-0.869187,0.407506,0.402806,0.084348,-0.110584,0.009141,0.326130,0.107452,0.939198,-0.037661,-0.128836,0.037550,-6.1640,2.9900,-15.2580,0.669750,-0.077785,-0.663494,-0.324285
152651.065000,-0.134464,0.544711,-0.827774,-0.436058,0.717603,0.543047,0.889816,0.433977,0.141034,1.2566,-1.0969,-1.8699,0.641110,0.160150,0.916990,-0.758031,0.333332,0.769298,0.089509,0.128524,0.091405,0.433977,0.141034,0.889816,0.180654,0.008593,0.013254,3.5400,-27.3430,-30.6390,0.656539,-0.041532,-0.654032,-0.373462
152651.140000,-0.067997,0.622142,-0.779946,-0.440231,0.682824,0.583051,0.895306,0.383002,0.227456,1.0349,-1.1091,-1.7240,0.379880,0.230950,0.823730,-0.524612,0.470740,0.615926,-0.010292,0.018375,-0.087119,0.383002,0.227456,0.895306,-0.027223,-0.001075,-0.085387,-0.1220,14.5260,-50.5980,0.678654,-0.073693,-0.617123,-0.391353
152651.215000,-0.034986,0.678295,-0.733956,-0.353783,0.678444,0.643857,0.934673,0.282187,0.216233,0.9170,-1.2073,-1.6694,0.229980,0.180660,0.859860,-0.516605,0.594831,0.451866,-0.023723,-0.045987,-0.112893,0.282187,0.216233,0.934673,-0.079148,-0.036608,-0.088419,-23.0100,31.6160,-49.2550,0.681853,-0.132605,-0.611800,-0.378409
152651.290000,-0.070242,0.694064,-0.716478,-0.278971,0.675925,0.682129,0.957727,0.247791,0.146146,1.0379,-1.2790,-1.8175,0.230460,0.062010,0.943840,-0.649390,0.621443,0.374021,0.028745,-0.083277,-0.050488,0.247791,0.146146,0.957727,-0.048849,-0.084779,-0.027141,-37.6580,13.4880,-25.3290,0.661783,-0.164079,-0.632460,-0.367581
152651.365000,-0.099801,0.732647,-0.673252,-0.222672,0.643024,0.732760,0.969772,0.223045,0.098966,1.1532,-1.3243,-1.9922,0.123530,-0.003900,0.839840,-0.580610,0.585387,0.202041,-0.013955,-0.125066,-0.176777,0.223045,0.098966,0.969772,-0.130074,-0.099743,-0.142192,-27.4650,-6.8350,-52.7950,0.640739,-0.198878,-0.641065,-0.372741
152651.441000,-0.144838,0.773797,-0.616652,-0.261515,0.571124,0.778092,0.954270,0.273961,0.119639,1.1591,-1.2672,-2.0766,0.221670,-0.047360,0.806640,-0.566169,0.542621,0.295064,0.061521,-0.133972,-0.194498,0.273961,0.119639,0.954270,-0.082194,-0.165449,-0.159479,18.0050,-30.2730,-81.1760,0.621676,-0.202730,-0.631728,-0.416339
152651.516000,-0.141129,0.817615,-0.558201,-0.445276,0.451168,0.773418,0.884201,0.357706,0.300392,0.8723,-1.0848,-1.8777,0.296870,0.166010,0.698730,-0.296197,0.483120,0.531768,0.035587,-0.054156,-0.245748,0.357706,0.300392,0.884201,-0.083242,-0.135571,-0.198199,69.7630,-38.7570,-92.5290,0.634514,-0.163792,-0.568310,-0.497582
152651.591000,-0.058049,0.906369,-0.418480,-0.627401,0.292939,0.721494,0.776529,0.304437,0.551652,0.5043,-0.8891,-1.6631,0.353510,0.587400,0.888670,0.139989,0.591450,0.943574,0.009737,-0.030968,0.098935,0.304437,0.551652,0.776529,0.029873,0.028160,0.095690,96.6180,-19.5310,-128.2340,0.668308,-0.156012,-0.447028,-0.573751
152651.666000,0.032000,0.970980,-0.237009,-0.688790,0.193254,0.698728,0.724255,0.140890,0.674985,0.2058,-0.8100,-1.5244,-0.124510,0.376460,0.582510,0.223491,0.565530,0.356048,-0.210793,-0.151351,-0.348773,0.140890,0.674985,0.724255,-0.283063,-0.291210,-0.155097,78.0020,-21.0570,-105.6510,0.689246,-0.202336,-0.348665,-0.602024
152651.741000,-0.004966,0.997360,-0.072452,-0.845454,0.034504,0.532933,0.534026,0.063902,0.843050,0.0757,-0.5634,-1.5767,-0.003410,0.785150,0.520990,0.745347,0.307627,0.487572,-0.070305,-0.008303,-0.067712,0.063902,0.843050,0.534026,-0.074733,-0.056416,-0.028791,111.6940,-72.3870,-101.8670,0.684213,-0.171376,-0.221597,-0.673333
152651.816000,-0.161210,0.986645,0.023282,-0.935398,-0.160274,0.315188,0.314710,0.029034,0.948744,0.0306,-0.3202,-1.7415,0.162100,1.263180,0.482910,1.231422,-0.201875,0.545847,0.118093,-0.064555,0.343513,0.029034,0.948744,0.314710,0.136836,0.308308,0.149454,105.6510,-103.8810,-107.0550,0.637820,-0.112161,-0.114228,-0.753364
152651.891000,-0.337905,0.938347,0.072977,-0.897355,-0.344586,0.275709,0.283857,0.027677,0.958467,0.0289,-0.2878,-1.9309,0.238760,1.157220,0.422850,1.036054,-0.496431,0.505090,0.174744,-0.129811,0.224653,0.027677,0.958467,0.283857,0.214919,0.192285,0.121209,52.3680,-114.5010,-105.5290,0.564796,-0.109788,-0.093344,-0.812551
152651.966000,-0.499593,0.863733,0.066116,-0.822139,-0.496812,0.277966,0.272936,0.084513,0.958313,0.0880,-0.2764,-2.1168,0.268550,1.183100,0.348140,0.910735,-0.711793,0.506912,0.150252,-0.081464,0.240735,0.084513,0.958313,0.272936,0.190595,0.217989,0.057615,18.1270,-111.7550,-61.6450,0.490384,-0.098623,-0.105438,-0.859465
152652.041000,-0.638636,0.768751,0.034146,-0.725378,-0.616229,0.306740,0.256848,0.171126,0.951181,0.1780,-0.2598,-2.2927,0.127440,1.001460,0.242670,0.696772,-0.635134,0.434932,-0.008803,0.060558,0.032344,0.171126,0.951181,0.256848,-0.038550,0.049039,-0.029998,2.0140,-102.5390,-23.1320,0.417228,-0.081259,-0.133441,-0.895272
152652.116000,-0.741648,0.666590,0.074937,-0.636771,-0.734754,0.233791,0.210904,0.125673,0.969395,0.1289,-0.2125,-2.4321,0.051750,0.860350,0.208980,0.550781,-0.616241,0.321621,-0.043034,0.037727,-0.116247,0.125673,0.969395,0.210904,-0.071016,-0.107094,-0.016624,21.3010,-108.9470,-14.3430,0.351067,-0.076993,-0.096824,-0.928143
152652.191000,-0.852989,0.521798,-0.011687,-0.515733,-0.839214,0.172450,0.080176,0.153126,0.984949,0.1542,-0.0803,-2.5978,0.104000,0.893060,0.143550,0.375608,-0.778349,0.286478,-0.063228,-0.004332,-0.092284,0.153126,0.984949,0.080176,-0.043487,-0.090903,0.048768,58.8370,-114.0740,-39.0620,0.270530,-0.017858,-0.084892,-0.958795
152652.266000,-0.911061,0.411937,-0.016594,-0.410394,-0.902342,0.131743,0.039297,0.126836,0.991145,0.1273,-0.0393,-2.7184,0.147460,1.134270,0.151850,0.330384,-1.064011,0.300166,-0.077352,-0.048856,0.147419,0.126836,0.991145,0.039297,0.030918,0.140961,0.096316,66.1010,-91.4910,-48.6450,0.210798,-0.005820,-0.066284,-0.975262
152652.341000,-0.935375,0.347237,0.067082,-0.342532,-0.936705,0.072496,0.088009,0.044834,0.995110,0.0450,-0.0881,-2.7906,0.005370,1.212400,0.173820,0.427628,-1.124899,0.227799,-0.060069,0.019397,0.221173,0.044834,0.995110,0.088009,-0.029111,0.217468,0.069009,15.0750,-52.0010,-28.8080,0.175378,-0.039433,-0.029832,-0.983259
152652.416000,-0.939752,0.287431,0.185068,-0.285237,-0.957665,0.038966,0.188433,-0.016170,0.981953,-0.0165,-0.1896,-2.8469,-0.075190,1.020500,0.145990,0.391002,-0.950161,0.112686,0.047226,0.068002,0.031605,-0.016170,0.981953,0.188433,-0.052060,0.042425,-0.057822,-41.4420,-33.5690,-9.5820,0.145376,-0.094816,-0.005787,-0.984806
152652.492000,-0.963132,0.240626,0.120319,-0.249490,-0.966206,-0.064814,0.100657,-0.092443,0.990617,-0.0930,-0.1008,-2.8881,-0.278800,1.080560,-0.069820,0.520131,-0.969960,-0.197119,0.148479,0.207387,0.095981,-0.092443,0.990617,0.100657,-0.173523,0.099503,-0.185085,0.4270,-31.3110,-22.2770,0.123774,-0.055805,0.039714,-0.989944
152652.567000,-0.983604,0.180284,0.004538,-0.180181,-0.981358,-0.066873,-0.007603,-0.066594,0.997751,-0.0666,0.0076,-2.9604,-0.042960,0.903320,-0.039550,0.204931,-0.876095,-0.099290,0.050554,-0.018834,-0.090539,-0.066594,0.997751,-0.007603,0.033627,-0.088847,-0.045644,28.6250,-38.6350,-33.8740,0.090539,0.000770,0.033523,-0.995328
152652.642000,-0.984896,0.142957,-0.097694,-0.144923,-0.989354,0.013296,-0.094753,0.027254,0.995128,0.0274,0.0949,-2.9955,-0.045890,1.098140,-0.053220,0.207382,-1.080506,-0.018684,-0.045136,0.055990,0.102406,0.027254,0.995128,-0.094753,-0.059056,0.107061,0.026637,37.1090,-10.8030,12.5730,0.072247,0.048297,-0.010177,-0.996165
152652.717000,-0.988427,0.130996,-0.076506,-0.138535,-0.984950,0.103354,-0.061816,0.112757,0.991698,0.1132,0.0619,-3.0023,0.034660,1.082030,-0.002440,0.107669,-1.070799,0.117444,-0.059394,0.067660,0.081467,0.112757,0.991698,-0.061816,-0.065236,0.092328,0.044297,24.7190,5.2490,26.6110,0.067679,0.034732,-0.054265,-0.995625
152652.792000,-0.984451,0.126846,-0.121520,-0.132170,-0.990545,0.036765,-0.115708,0.052255,0.991908,0.0526,0.1160,-3.0081,-0.001950,1.111320,-0.092280,0.154100,-1.103947,-0.033236,-0.028283,0.041539,0.118651,0.052255,0.991908,-0.115708,-0.038533,0.122655,0.008624,18.1270,4.5770,14.0380,0.065024,0.059554,-0.022348,-0.995854
152652.867000,-0.989450,0.108934,-0.095507,-0.118615,-0.987651,0.102355,-0.083178,0.112604,0.990152,0.1132,0.0833,-3.0223,0.039550,0.999510,-0.064450,0.075903,-0.998455,0.045443,-0.012178,0.060044,0.005178,0.112604,0.990152,-0.083178,-0.060046,0.012435,0.004497,7.4460,3.1730,6.9580,0.057122,0.044855,-0.053961,-0.995898
152652.942000,-0.990428,0.106759,-0.087490,-0.107898,-0.994127,0.008387,-0.086080,0.017747,0.996130,0.0178,0.0862,-3.0331,-0.029290,1.021970,-0.070310,0.144265,-1.013397,-0.049380,-0.007701,0.033742,0.029469,0.017747,0.996130,-0.086080,-0.033843,0.030312,0.001449,3.6010,1.5250,-2.2580,0.053794,0.043498,-0.006549,-0.997583
152653.017000,-0.989916,0.081428,-0.115917,-0.091039,-0.992614,0.080181,-0.108532,0.089926,0.990017,0.0906,0.1087,-3.0499,0.015620,1.041990,-0.090330,0.079856,-1.042959,0.002578,-0.015097,0.063566,0.049055,0.089926,0.990017,-0.108532,-0.059914,0.055412,0.003833,3.9060,0.8540,2.7460,0.043266,0.056306,-0.042673,-0.996562
152653.092000,-0.993642,0.071280,-0.087143,-0.073606,-0.997004,0.023767,-0.085188,0.030030,0.995912,0.0301,0.0853,-3.0677,0.009760,1.017080,-0.079100,0.069693,-1.016631,-0.049065,0.005476,0.007871,0.025265,0.030030,0.995912,-0.085188,-0.006699,0.024872,-0.008173,0.0610,-0.1220,0.0000,0.036283,0.043155,-0.013472,-0.998318
152653.167000,-0.995023,0.045186,-0.088807,-0.052442,-0.995321,0.081155,-0.084725,0.085409,0.992737,0.0858,0.0848,-3.0889,0.014160,0.992670,-0.067870,0.036792,-0.994276,0.016206,-0.005648,0.058311,-0.001578,0.085409,0.992737,-0.084725,-0.058428,0.003667,0.002696,-0.5490,-0.3050,-0.7320,0.024459,0.043475,-0.041729,-0.997883
152653.242000,-0.994402,0.033780,-0.100119,-0.036612,-0.998976,0.026589,-0.099118,0.030106,0.994620,0.0303,0.0993,-3.1048,0.012690,1.021970,-0.083000,0.030213,-1.023595,-0.053044,-0.005058,0.004379,0.030516,0.030106,0.994620,-0.099118,-0.003627,0.030975,0.001844,0.8540,0.0000,0.6100,0.017624,0.049884,-0.014195,-0.998499
152653.317000,-0.996063,0.012135,-0.087814,-0.018254,-0.997435,0.069217,-0.086749,0.070548,0.993729,0.0709,0.0869,-3.1233,0.010250,1.004390,-0.074700,0.008538,-1.007171,-0.004263,0.000304,0.048005,0.011206,0.070548,0.993729,-0.086749,-0.047088,0.014432,-0.002151,-0.1220,-0.1830,-0.1830,0.007609,0.043710,-0.034997,-0.998402
152653.392000,-0.995502,0.002961,-0.094693,-0.005457,-0.999644,0.026110,-0.094582,0.026509,0.995164,0.0266,0.0947,-3.1361,0.013670,1.013180,-0.079100,-0.003118,-1.014959,-0.053152,-0.003290,-0.000121,0.021462,0.026509,0.995164,-0.094582,0.000680,0.021667,0.001246,0.3050,-0.1220,0.1830,0.002107,0.047376,-0.013171,-0.998788
152653.468000,-0.995598,-0.017823,-0.092014,0.010815,-0.997041,0.076108,-0.093098,0.074778,0.992845,0.0752,0.0932,3.1307,0.013670,1.008780,-0.077140,-0.024491,-1.011518,-0.002426,-0.002687,0.049097,0.015738,0.074778,0.992845,-0.093098,-0.047727,0.019609,0.001741,0.1830,-0.1220,0.0610,-0.007172,0.046362,-0.037790,-0.998184
152653.543000,-0.995510,-0.023838,-0.091604,0.021888,-0.999513,0.022237,-0.092089,0.020132,0.995547,0.0202,0.0922,3.1196,0.013180,1.010250,-0.079100,-0.029957,-1.011229,-0.059623,-0.000618,-0.006122,0.018552,0.020132,0.995547,-0.092089,0.006508,0.018390,-0.001228,0.3050,-0.0610,0.1220,-0.011445,0.045978,-0.010605,-0.998821
152653.618000,-0.994616,-0.041324,-0.095031,0.034512,-0.996790,0.072242,-0.097712,0.068574,0.992849,0.0690,0.0979,3.1069,0.013670,1.010740,-0.080070,-0.047755,-1.012808,-0.011523,-0.003747,0.042948,0.018242,0.068574,0.992849,-0.097712,-0.041405,0.021570,0.003426,0.3050,-0.0610,0.1220,-0.018996,0.048281,-0.035273,-0.998030
152653.693000,-0.994755,-0.044696,-0.092007,0.042544,-0.998776,0.025221,-0.093022,0.021175,0.995439,0.0213,0.0932,3.0989,0.014160,1.010250,-0.081050,-0.051783,-1.010455,-0.060606,0.000232,-0.006126,0.018753,0.021175,0.995439,-0.093022,0.006505,0.018491,-0.002236,0.2440,-0.1220,0.0610,-0.021840,0.046321,-0.011615,-0.998620
152653.768000,-0.993548,-0.061662,-0.095183,0.054633,-0.995703,0.074772,-0.099385,0.069090,0.992648,0.0695,0.0995,3.0867,0.014640,1.009760,-0.081050,-0.069095,-1.010681,-0.012145,-0.003558,0.042541,0.017394,0.069090,0.992648,-0.099385,-0.040937,0.020786,0.004130,0.3050,-0.1220,0.1220,-0.029140,0.048752,-0.036047,-0.997735
152653.843000,-0.993613,-0.064269,-0.092750,0.062393,-0.997787,0.022982,-0.094022,0.017048,0.995424,0.0171,0.0942,3.0789,0.015130,1.010250,-0.082510,-0.072308,-1.008967,-0.066332,0.000207,-0.011364,0.018862,0.017048,0.995424,-0.094022,0.011647,0.018495,-0.002688,0.3050,-0.0610,0.0610,-0.031718,0.046770,-0.010024,-0.998352
152653.918000,-0.992332,-0.078978,-0.095076,0.072145,-0.994698,0.073289,-0.100360,0.065868,0.992768,0.0663,0.1005,3.0690,0.015620,1.010740,-0.082510,-0.087482,-1.010301,-0.016906,-0.002778,0.038324,0.018688,0.065868,0.992768,-0.100360,-0.036670,0.021626,0.003646,0.2440,-0.0610,0.0610,-0.037877,0.048983,-0.034877,-0.997472
152653.993000,-0.992296,-0.081572,-0.093242,0.079364,-0.996476,0.027149,-0.095128,0.019540,0.995273,0.0196,0.0953,3.0618,0.015620,1.009760,-0.083490,-0.090083,-1.007229,-0.064851,0.000054,-0.009341,0.018503,0.019540,0.995273,-0.095128,0.009666,0.018157,-0.002555,0.2440,-0.1220,0.0610,-0.040314,0.047187,-0.011696,-0.998004
152654.068000,-0.991199,-0.092264,-0.094932,0.086201,-0.994082,0.066105,-0.100469,0.057340,0.993286,0.0577,0.1006,3.0548,0.016600,1.010250,-0.083980,-0.101691,-1.008392,-0.027156,-0.001729,0.028526,0.018687,0.057340,0.993286,-0.100469,-0.027126,0.020611,0.002296,0.1830,-0.1220,0.0610,-0.044736,0.048982,-0.030944,-0.997317
152654.143000,-0.991343,-0.091793,-0.093874,0.089683,-0.995619,0.026461,-0.095892,0.017813,0.995232,0.0179,0.0960,3.0514,0.017080,1.008780,-0.084470,-0.101602,-1.005064,-0.067736,-0.000060,-0.012605,0.017613,0.017813,0.995232,-0.095892,0.012869,0.017201,-0.002760,0.1830,-0.1220,0.0610,-0.045470,0.047547,-0.011093,-0.997772
152654.218000,-0.990069,-0.103947,-0.094653,0.097396,-0.992682,0.071396,-0.101382,0.061468,0.992947,0.0618,0.1016,3.0435,0.017080,1.009270,-0.083980,-0.113872,-1.006216,-0.023082,-0.001872,0.032303,0.017609,0.061468,0.992947,-0.101382,-0.030790,0.019968,0.003214,0.3050,-0.0610,0.1220,-0.050489,0.049158,-0.033317,-0.996957
152654.293000,-0.989940,-0.104120,-0.095801,0.101958,-0.994417,0.027201,-0.098098,0.017159,0.995029,0.0172,0.0983,3.0390,0.018060,1.010740,-0.086420,-0.114837,-1.005606,-0.070419,-0.000891,-0.014248,0.019740,0.017159,0.995029,-0.098098,0.014600,0.019340,-0.002507,0.3660,-0.0610,0.1830,-0.051653,0.048600,-0.011119,-0.997420
152654.368000,-0.988596,-0.115457,-0.096678,0.108655,-0.991402,0.072914,-0.104265,0.061578,0.992641,0.0620,0.1045,3.0321,0.018060,1.009760,-0.086910,-0.126036,-1.005453,-0.025975,-0.001706,0.031426,0.018439,0.061578,0.992641,-0.104265,-0.029824,0.020760,0.003179,0.2440,-0.1220,0.0610,-0.056221,0.050408,-0.033738,-0.996574
152654.443000,-0.988996,-0.114024,-0.094259,0.111936,-0.993344,0.027164,-0.096729,0.016314,0.995177,0.0164,0.0969,3.0289,0.018550,1.009270,-0.086420,-0.125281,-1.002823,-0.071333,0.000340,-0.015756,0.018272,0.016314,0.995177,-0.096729,0.015910,0.017724,-0.003867,0.1830,-0.1220,0.0610,-0.056650,0.047882,-0.010900,-0.997186
152654.519000,-0.987216,-0.126231,-0.097319,0.118915,-0.989863,0.077657,-0.106135,0.065091,0.992219,0.0655,0.1063,3.0217,0.019040,1.009760,-0.087400,-0.137754,-1.004047,-0.023014,-0.002480,0.034196,0.018410,0.065091,0.992219,-0.106135,-0.032338,0.021164,0.004561,0.2440,-0.1220,0.0610,-0.061523,0.051060,-0.035825,-0.996155
152654.594000,-0.987850,-0.122559,-0.095559,0.120814,-0.992388,0.023863,-0.097756,0.012028,0.995138,0.0121,0.0979,3.0199,0.019040,1.009270,-0.087890,-0.134105,-1.001385,-0.077185,0.000012,-0.020667,0.018347,0.012028,0.995138,-0.097756,0.020729,0.017763,-0.004303,0.1830,-0.1220,0.0610,-0.061031,0.048478,-0.009000,-0.996917
152654.669000,-0.986021,-0.135123,-0.097493,0.127488,-0.988550,0.080724,-0.107285,0.067166,0.991957,0.0676,0.1075,3.0130,0.020500,1.009760,-0.088370,-0.148040,-1.002718,-0.022037,-0.002317,0.034874,0.018508,0.067166,0.991957,-0.107285,-0.032918,0.021400,0.004745,0.2440,-0.1220,0.0610,-0.065929,0.051410,-0.037128,-0.995807
152654.744000,-0.986408,-0.132978,-0.096524,0.130764,-0.990991,0.028944,-0.099504,0.015929,0.994910,0.0160,0.0997,3.0098,0.020010,1.009760,-0.089350,-0.145390,-1.000633,-0.074802,-0.000200,-0.017682,0.019056,0.015929,0.994910,-0.099504,0.017853,0.018466,-0.004011,0.2440,-0.1220,0.0610,-0.066165,0.049178,-0.011257,-0.996533
152654.819000,-0.984634,-0.144481,-0.098089,0.137051,-0.987432,0.078707,-0.108228,0.064055,0.992060,0.0645,0.1084,3.0033,0.020500,1.009760,-0.089840,-0.157264,-1.001331,-0.026666,-0.001950,0.031648,0.018775,0.064055,0.992060,-0.108228,-0.029766,0.021308,0.004225,0.2440,-0.1220,0.0610,-0.070701,0.051812,-0.035852,-0.995506
152654.894000,-0.985771,-0.136815,-0.097654,0.135257,-0.990557,0.022434,-0.099801,0.008906,0.994968,0.0090,0.1000,3.0052,0.021480,1.009270,-0.090330,-0.150437,-0.998860,-0.083031,-0.000736,-0.026356,0.018509,0.008906,0.994968,-0.099801,0.026372,0.017897,-0.004686,0.1830,-0.1830,0.0610,-0.068263,0.049542,-0.007863,-0.996405
152654.969000,-0.984256,-0.146885,-0.098315,0.139402,-0.987071,0.079111,-0.108664,0.064161,0.992006,0.0646,0.1089,3.0009,0.021970,1.009270,-0.090820,-0.160941,-1.000343,-0.027726,-0.001513,0.030173,0.018463,0.064161,0.992006,-0.108664,-0.028376,0.020851,0.003689,0.1830,-0.1830,0.0610,-0.071902,0.051984,-0.035983,-0.995406
152655.044000,-0.984967,-0.142389,-0.097799,0.140201,-0.989701,0.028922,-0.100909,0.014776,0.994786,0.0149,0.1011,3.0002,0.022460,1.009270,-0.091300,-0.156902,-0.998367,-0.078177,-0.000355,-0.021408,0.018746,0.014776,0.994786,-0.100909,0.021515,0.018064,-0.004543,0.1830,-0.1830,0.0610,-0.070919,0.049868,-0.010967,-0.996174
152655.119000,-0.983638,-0.150710,-0.098710,0.143567,-0.986726,0.075895,-0.108837,0.060482,0.992218,0.0609,0.1091,2.9967,0.022460,1.008780,-0.091790,-0.165065,-0.999131,-0.032507,-0.001197,0.025812,0.018215,0.060482,0.992218,-0.108837,-0.024187,0.020150,0.002900,0.1220,-0.1220,0.0000,-0.073916,0.052131,-0.034255,-0.995312
152655.194000,-0.984311,-0.146296,-0.098633,0.143900,-0.989106,0.031026,-0.102097,0.016346,0.994640,0.0164,0.1023,2.9964,0.022940,1.008300,-0.092280,-0.160989,-0.996877,-0.077646,-0.000434,-0.020300,0.017928,0.016346,0.994640,-0.102097,0.020436,0.017245,-0.004325,0.1830,-0.1220,0.0610,-0.072840,0.050384,-0.011891,-0.995999
152655.269000,-0.983124,-0.152921,-0.100415,0.145805,-0.986483,0.074783,-0.110494,0.058880,0.992131,0.0593,0.1107,2.9944,0.023430,1.009270,-0.093750,-0.167959,-0.999222,-0.036175,-0.001344,0.023184,0.018996,0.058880,0.992131,-0.110494,-0.021547,0.020715,0.002603,0.2440,-0.1220,0.0610,-0.075041,0.052981,-0.033577,-0.995206
152655.344000,-0.984028,-0.147540,-0.099603,0.145133,-0.988925,0.031039,-0.103079,0.016088,0.994543,0.0162,0.1033,2.9952,0.023920,1.008780,-0.093750,-0.163036,-0.997046,-0.079475,-0.000247,-0.021634,0.018555,0.016088,0.994543,-0.103079,0.021730,0.017807,-0.004809,0.1830,-0.1220,0.0610,-0.073467,0.050878,-0.011830,-0.995929
152655.419000,-0.982863,-0.154600,-0.100393,0.147210,-0.986080,0.077305,-0.110947,0.061201,0.991940,0.0616,0.1112,2.9929,0.023920,1.009270,-0.094230,-0.170084,-0.998984,-0.034356,-0.001020,0.025032,0.019015,0.061201,0.991940,-0.110947,-0.023362,0.020899,0.002578,0.1220,-0.1830,0.0000,-0.075824,0.053095,-0.034797,-0.995098
152655.495000,-0.983376,-0.150931,-0.100952,0.148303,-0.988388,0.033092,-0.104774,0.017570,0.994341,0.0177,0.1050,2.9919,0.024900,1.008780,-0.095210,-0.167131,-0.996524,-0.079556,-0.000537,-0.021107,0.018748,0.017570,0.994341,-0.104774,0.021273,0.017998,-0.004567,0.1220,-0.1830,0.0000,-0.075128,0.051651,-0.012720,-0.995754
152655.570000,-0.981932,-0.160024,-0.101004,0.152151,-0.985000,0.081394,-0.112514,0.064555,0.991551,0.0650,0.1128,2.9879,0.024900,1.008780,-0.095210,-0.176262,-0.997609,-0.032085,-0.001101,0.027501,0.018595,0.064555,0.991551,-0.112514,-0.025712,0.020788,0.003173,0.1220,-0.1220,0.0000,-0.078452,0.053659,-0.036678,-0.994797
152655.645000,-0.982607,-0.156260,-0.100334,0.153432,-0.987527,0.035353,-0.104606,0.019344,0.994326,0.0195,0.1048,2.9867,0.024900,1.008780,-0.095210,-0.172546,-0.995743,-0.077761,-0.000202,-0.019346,0.018784,0.019344,0.994326,-0.104606,0.019499,0.018013,-0.004735,0.1220,-0.1830,0.0000,-0.077769,0.051464,-0.013735,-0.995547
152655.720000,-0.981546,-0.162340,-0.101064,0.154947,-0.984902,0.077194,-0.112070,0.060110,0.991881,0.0605,0.1123,2.9850,0.025390,1.008780,-0.095700,-0.179015,-0.997003,-0.037131,-0.000896,0.022373,0.018786,0.060110,0.991881,-0.112070,-0.020761,0.020451,0.002241,0.1220,-0.1830,0.0000,-0.079738,0.053563,-0.034506,-0.994777
152655.795000,-0.982110,-0.158336,-0.101928,0.155405,-0.987190,0.036134,-0.106343,0.019647,0.994135,0.0198,0.1065,2.9847,0.025870,1.008300,-0.096670,-0.175204,-0.994856,-0.079044,-0.000636,-0.019995,0.018483,0.019647,0.994135,-0.106343,0.020202,0.017717,-0.004448,0.1220,-0.1220,0.0000,-0.078796,0.052307,-0.014009,-0.995419
152655.870000,-0.980816,-0.166278,-0.101739,0.158384,-0.984022,0.081332,-0.113637,0.063658,0.991481,0.0641,0.1139,2.9815,0.025870,1.007810,-0.096670,-0.183115,-0.995472,-0.034631,-0.000858,0.025506,0.017876,0.063658,0.991481,-0.113637,-0.023818,0.019886,0.002850,0.1220,-0.1220,0.0000,-0.081612,0.054141,-0.036447,-0.994525
152655.945000,-0.981540,-0.161910,-0.101801,0.158945,-0.986607,0.036643,-0.106371,0.019785,0.994130,0.0199,0.1066,2.9811,0.026360,1.009270,-0.097160,-0.179393,-0.995123,-0.079425,-0.000411,-0.020410,0.019497,0.019785,0.994130,-0.106371,0.020589,0.018677,-0.004914,0.1220,-0.1220,0.0000,-0.080595,0.052290,-0.014174,-0.995273
152656.020000,-0.980549,-0.167920,-0.101621,0.160140,-0.983809,0.080464,-0.113487,0.062625,0.991564,0.0631,0.1137,2.9797,0.026850,1.008300,-0.097160,-0.185768,-0.995493,-0.036243,-0.000568,0.023408,0.018485,0.062625,0.991564,-0.113487,-0.021776,0.020270,0.002208,0.0610,-0.1220,0.0000,-0.082471,0.054076,-0.035971,-0.994475
152656.095000,-0.981538,-0.161882,-0.101869,0.159324,-0.986681,0.032823,-0.105825,0.015986,0.994256,0.0161,0.1060,2.9807,0.027340,1.008300,-0.097160,-0.180164,-0.993703,-0.083376,-0.000541,-0.025310,0.018448,0.015986,0.994256,-0.105825,0.025355,0.017567,-0.005454,0.1220,-0.1830,0.0000,-0.080681,0.052169,-0.012260,-0.995298
152656.170000,-0.980336,-0.168708,-0.102371,0.160516,-0.983483,0.083639,-0.114791,0.065562,0.991224,0.0660,0.1150,2.9793,0.027340,1.007810,-0.097650,-0.186831,-0.994943,-0.033857,-0.000942,0.025985,0.018005,0.065562,0.991224,-0.114791,-0.024216,0.020117,0.003027,0.1220,-0.1220,0.0000,-0.082772,0.054598,-0.037512,-0.994364
152656.245000,-0.980840,-0.164466,-0.104422,0.161199,-0.986149,0.039043,-0.109397,0.021463,0.993766,0.0216,0.1096,2.9787,0.027340,1.008780,-0.099600,-0.182325,-0.994289,-0.080319,-0.000989,-0.019650,0.019335,0.021463,0.993766,-0.109397,0.019955,0.018551,-0.004313,0.1220,-0.1220,0.0000,-0.081819,0.053719,-0.015201,-0.995082
152656.320000,-0.979958,-0.170275,-0.103381,0.162406,-0.983448,0.080341,-0.115350,0.061941,0.991392,0.0624,0.1156,2.9774,0.027830,1.008780,-0.099600,-0.188746,-0.995565,-0.039468,-0.000359,0.021645,0.019305,0.061941,0.991392,-0.115350,-0.020030,0.020915,0.001640,0.1220,-0.1220,0.0000,-0.083644,0.054995,-0.035773,-0.994334
152656.395000,-0.980940,-0.164274,-0.103786,0.161315,-0.986233,0.036355,-0.108329,0.018920,0.993935,0.0190,0.1085,2.9786,0.028800,1.008300,-0.099600,-0.183552,-0.993394,-0.083039,-0.000515,-0.023845,0.018801,0.018920,0.993935,-0.108329,0.023957,0.017874,-0.005378,0.0610,-0.1220,0.0000,-0.081796,0.053288,-0.013886,-0.995127
152656.471000,-0.979949,-0.170430,-0.103219,0.162145,-0.983185,0.083998,-0.115800,0.065577,0.991105,0.0661,0.1161,2.9776,0.028800,1.005850,-0.099120,-0.189419,-0.992593,-0.035613,-0.000541,0.024331,0.016317,0.065577,0.991105,-0.115800,-0.022760,0.018271,0.002586,0.1220,-0.1220,0.0000,-0.083624,0.055071,-0.037610,-0.994263
152656.546000,-0.980958,-0.162583,-0.106241,0.159910,-0.986571,0.033269,-0.110223,0.015647,0.993784,0.0157,0.1104,2.9800,0.029290,1.008780,-0.101070,-0.182005,-0.993912,-0.087886,-0.001625,-0.027576,0.019366,0.015647,0.993784,-0.110223,0.027773,0.018501,-0.004950,0.2440,-0.1220,0.0610,-0.081016,0.054380,-0.012288,-0.995152
152656.621000,-0.979697,-0.170459,-0.105533,0.161718,-0.983036,0.086532,-0.118492,0.067708,0.990644,0.0682,0.1188,2.9780,0.029290,1.008300,-0.101560,-0.189851,-0.995246,-0.035810,-0.000872,0.026163,0.018991,0.067708,0.990644,-0.118492,-0.024284,0.021169,0.002835,0.1830,-0.1220,0.0000,-0.083532,0.056336,-0.038787,-0.994155
152656.696000,-0.980747,-0.163913,-0.106148,0.161013,-0.986317,0.035395,-0.110497,0.017622,0.993720,0.0177,0.1107,2.9789,0.029290,1.008780,-0.102050,-0.183246,-0.993873,-0.086869,-0.000662,-0.025724,0.019535,0.017622,0.993720,-0.110497,0.025824,0.018572,-0.005651,0.0610,-0.1220,-0.0610,-0.081633,0.054429,-0.013320,-0.995086
152656.771000,-0.979588,-0.170951,-0.105753,0.162253,-0.982988,0.086071,-0.118668,0.067156,0.990660,0.0677,0.1189,2.9774,0.029780,1.007810,-0.102050,-0.190666,-0.994617,-0.036951,-0.000686,0.025027,0.018606,0.067156,0.990660,-0.118668,-0.023235,0.020659,0.002525,0.0610,-0.1830,-0.0610,-0.083792,0.056436,-0.038533,-0.994137
152656.846000,-0.980802,-0.163628,-0.106082,0.160825,-0.986379,0.034521,-0.110286,0.016798,0.993758,0.0169,0.1105,2.9791,0.030270,1.007810,-0.102050,-0.183769,-0.992737,-0.087822,-0.000636,-0.027576,0.018551,0.016798,0.993758,-0.110286,0.027616,0.017551,-0.005857,0.0610,-0.1830,-0.0610,-0.081512,0.054358,-0.012893,-0.995105
152656.921000,-0.979672,-0.170599,-0.105539,0.161895,-0.983033,0.086231,-0.118459,0.067392,0.990669,0.0679,0.1187,2.9778,0.030760,1.008300,-0.102050,-0.191380,-0.995012,-0.036790,-0.000660,0.024290,0.019128,0.067392,0.990669,-0.118459,-0.022476,0.021114,0.002313,0.0610,-0.1830,0.0000,-0.083612,0.056329,-0.038632,-0.994155
152656.996000,-0.980479,-0.164323,-0.107972,0.161209,-0.986226,0.037019,-0.112568,0.018890,0.993464,0.0190,0.1128,2.9786,0.030270,1.007810,-0.103510,-0.184109,-0.992880,-0.087204,-0.001200,-0.025361,0.018787,0.018890,0.993464,-0.112568,0.025564,0.017855,-0.005027,0.0610,-0.1830,-0.0610,-0.081791,0.055412,-0.014047,-0.995009
152657.071000,-0.979536,-0.171029,-0.106105,0.162159,-0.982896,0.087297,-0.119221,0.068304,0.990516,0.0688,0.1195,2.9775,0.031250,1.006830,-0.103020,-0.191876,-0.993535,-0.036998,-0.000261,0.024578,0.017803,0.068304,0.990516,-0.119221,-0.022897,0.019807,0.002119,0.0610,-0.1830,-0.0610,-0.083791,0.056666,-0.039131,-0.994101
152657.146000,-0.980181,-0.166104,-0.107957,0.162543,-0.985847,0.041057,-0.113248,0.022696,0.993307,0.0228,0.1135,2.9773,0.030270,1.008780,-0.104000,-0.186005,-0.993852,-0.083837,-0.000923,-0.021489,0.019893,0.022696,0.993307,-0.113248,0.021790,0.018977,-0.004841,0.0610,-0.1830,-0.0610,-0.082583,0.055585,-0.016020,-0.994904
152657.221000,-0.979426,-0.171124,-0.106966,0.162830,-0.983238,0.082036,-0.119211,0.062931,0.990873,0.0634,0.1195,2.9768,0.031250,1.007810,-0.104000,-0.191943,-0.994360,-0.043353,-0.000299,0.019045,0.019008,0.062931,0.990873,-0.119211,-0.017478,0.020429,0.001128,0.0610,-0.1830,-0.0610,-0.083978,0.056875,-0.036454,-0.994175
152657.296000,-0.979935,-0.167024,-0.108769,0.162875,-0.985572,0.046038,-0.114889,0.027399,0.993000,0.0276,0.1151,2.9769,0.031250,1.007320,-0.104980,-0.187451,-0.992530,-0.080236,-0.000875,-0.017669,0.018672,0.027399,0.993000,-0.114889,0.018072,0.017823,-0.004166,0.0610,-0.1830,-0.0610,-0.082906,0.056207,-0.018455,-0.994800
152657.371000,-0.979064,-0.172665,-0.107795,0.164191,-0.982919,0.083136,-0.120309,0.063697,0.990691,0.0642,0.1206,2.9754,0.031730,1.007320,-0.104980,-0.193678,-0.993632,-0.043657,-0.000333,0.019319,0.018653,0.063697,0.990691,-0.120309,-0.017744,0.020121,0.001254,0.0610,-0.1830,-0.0610,-0.084717,0.057366,-0.036927,-0.994067
152657.446000,-0.980076,-0.166445,-0.108387,0.162622,-0.985739,0.043266,-0.114043,0.024778,0.993167,0.0249,0.1143,2.9772,0.032220,1.006830,-0.104980,-0.187781,-0.991774,-0.082990,-0.000554,-0.021423,0.018139,0.024778,0.993167,-0.114043,0.021659,0.017149,-0.005009,0.0000,-0.1830,-0.0610,-0.082692,0.055895,-0.017099,-0.994860
152657.522000,-0.979049,-0.172896,-0.107567,0.163852,-0.982557,0.087947,-0.120897,0.068479,0.990300,0.0690,0.1212,2.9758,0.033200,1.007810,-0.104980,-0.195458,-0.994023,-0.038962,-0.000417,0.022816,0.019099,0.068479,0.990300,-0.120897,-0.021038,0.020965,0.001838,0.0000,-0.1830,-0.0610,-0.084698,0.057463,-0.039344,-0.993970
152657.597000,-0.980043,-0.166710,-0.108277,0.163350,-0.985787,0.039251,-0.113282,0.020780,0.993346,0.0209,0.1135,2.9764,0.031730,1.004880,-0.104490,-0.187306,-0.989516,-0.086507,-0.000651,-0.025026,0.016063,0.020780,0.993346,-0.113282,0.025113,0.015044,-0.005270,0.0610,-0.1830,-0.0610,-0.082939,0.055675,-0.015085,-0.994884
152657.672000,-0.978591,-0.173573,-0.110597,0.163992,-0.982294,0.090582,-0.124361,0.070506,0.989729,0.0711,0.1247,2.9756,0.033200,1.007810,-0.106930,-0.195591,-0.994207,-0.038904,-0.001680,0.025107,0.019289,0.070506,0.989729,-0.124361,-0.023011,0.021551,0.003362,0.4270,-0.1220,0.1830,-0.084917,0.059106,-0.040523,-0.993808
152657.747000,-0.979805,-0.165927,-0.111583,0.162108,-0.985856,0.042533,-0.117062,0.023586,0.992844,0.0238,0.1173,2.9776,0.035150,1.007810,-0.108390,-0.189568,-0.992468,-0.087959,-0.001071,-0.025635,0.019513,0.023586,0.992844,-0.117062,0.025911,0.018403,-0.005390,0.3660,-0.1220,0.1830,-0.082437,0.057460,-0.016616,-0.994800
152657.822000,-0.978268,-0.175369,-0.110624,0.165059,-0.981562,0.096394,-0.125489,0.076040,0.989177,0.0767,0.1258,2.9744,0.034170,1.006830,-0.107910,-0.198057,-0.993028,-0.034471,-0.000947,0.029670,0.018351,0.076040,0.989177,-0.125489,-0.027561,0.021117,0.003521,0.1220,-0.1830,0.0000,-0.085655,0.059408,-0.043386,-0.993605
152657.897000,-0.979488,-0.168524,-0.110468,0.164823,-0.985434,0.041881,-0.115917,0.022814,0.992997,0.0230,0.1162,2.9749,0.035150,1.007320,-0.107910,-0.192266,-0.991373,-0.088248,-0.000524,-0.026526,0.018946,0.022814,0.992997,-0.115917,0.026660,0.017761,-0.006055,0.1220,-0.1830,0.0000,-0.083779,0.056896,-0.016259,-0.994726
152657.972000,-0.978043,-0.176053,-0.111519,0.166098,-0.981705,0.093093,-0.125868,0.072526,0.989392,0.0732,0.1262,2.9734,0.034660,1.007320,-0.108880,-0.199099,-0.993270,-0.039030,-0.001111,0.025566,0.019082,0.072526,0.989392,-0.125868,-0.023519,0.021384,0.002932,0.0610,-0.1830,0.0000,-0.086087,0.059728,-0.041671,-0.993622
152658.047000,-0.979452,-0.168012,-0.111565,0.164431,-0.985552,0.040625,-0.116779,0.021445,0.992926,0.0216,0.1170,2.9753,0.035150,1.006830,-0.108880,-0.191440,-0.990927,-0.090623,-0.000620,-0.027948,0.018550,0.021445,0.992926,-0.116779,0.028046,0.017353,-0.006155,0.0610,-0.1830,-0.0610,-0.083551,0.057389,-0.015600,-0.994727
152658.122000,-0.977878,-0.176336,-0.112518,0.165672,-0.981296,0.098035,-0.127700,0.077225,0.988802,0.0779,0.1281,2.9738,0.035150,1.006830,-0.109860,-0.199552,-0.992945,-0.035366,-0.001239,0.029923,0.018620,0.077225,0.988802,-0.127700,-0.027707,0.021485,0.003792,0.0610,-0.1830,0.0000,-0.086064,0.060449,-0.044103,-0.993476
152658.197000,-0.979064,-0.170213,-0.111630,0.166307,-0.985115,0.043489,-0.117371,0.024014,0.992798,0.0242,0.1176,2.9733,0.036620,1.006830,-0.109860,-0.194965,-0.990530,-0.089189,-0.000140,-0.026910,0.018746,0.024014,0.992798,-0.117371,0.026983,0.017456,-0.006539,0.0610,-0.1830,-0.0610,-0.084586,0.057561,-0.016967,-0.994608
152658.272000,-0.977508,-0.178630,-0.112111,0.167984,-0.980886,0.098209,-0.127512,0.077167,0.988831,0.0779,0.1279,2.9714,0.036130,1.006340,-0.109860,-0.202763,-0.991824,-0.035583,-0.001108,0.028826,0.018196,0.077167,0.988831,-0.127512,-0.026673,0.020948,0.003606,0.0610,-0.1830,0.0000,-0.087231,0.060305,-0.044136,-0.993381
152658.347000,-0.979096,-0.168895,-0.113340,0.165579,-0.985459,0.038128,-0.118132,0.018564,0.992824,0.0187,0.1184,2.9741,0.035640,1.007320,-0.110350,-0.192519,-0.990979,-0.095069,-0.001211,-0.031366,0.019137,0.018564,0.992824,-0.118132,0.031470,0.017941,-0.006268,0.0610,-0.1830,-0.0610,-0.084067,0.058179,-0.014249,-0.994658
152658.422000,-0.977841,-0.176658,-0.112332,0.166212,-0.981360,0.096471,-0.127280,0.075663,0.988977,0.0764,0.1276,2.9732,0.036130,1.006340,-0.110350,-0.200712,-0.992222,-0.037590,-0.000716,0.027173,0.018306,0.075663,0.988977,-0.127280,-0.025155,0.020806,0.002887,0.0610,-0.1830,-0.0610,-0.086278,0.060295,-0.043315,-0.993501
152658.498000,-0.979244,-0.168010,-0.113372,0.164347,-0.985551,0.040987,-0.118620,0.021504,0.992707,0.0217,0.1189,2.9753,0.037100,1.006830,-0.110830,-0.192923,-0.990727,-0.092772,-0.000905,-0.029877,0.018803,0.021504,0.992707,-0.118620,0.030002,0.017543,-0.006255,0.0000,-0.1830,-0.0610,-0.083534,0.058309,-0.015706,-0.994674
152658.573000,-0.978229,-0.174036,-0.113046,0.163916,-0.982039,0.093441,-0.127277,0.072876,0.989186,0.0735,0.1276,2.9756,0.037590,1.006340,-0.111320,-0.199327,-0.992505,-0.041562,-0.000569,0.022735,0.018583,0.072876,0.989186,-0.127277,-0.020873,0.020571,0.001918,0.0000,-0.1830,-0.0610,-0.085027,0.060464,-0.041844,-0.993662
152658.648000,-0.979229,-0.168094,-0.113376,0.163754,-0.985398,0.046632,-0.119559,0.027098,0.992457,0.0273,0.1198,2.9759,0.037100,1.006830,-0.111320,-0.192950,-0.991245,-0.087633,-0.000441,-0.024185,0.019018,0.027098,0.992457,-0.119559,0.024422,0.017797,-0.005803,0.0000,-0.1830,-0.0610,-0.083411,0.058549,-0.018532,-0.994621
152658.723000,-0.978074,-0.174874,-0.113092,0.164568,-0.981792,0.094883,-0.127626,0.074191,0.989044,0.0749,0.1280,2.9749,0.037590,1.005850,-0.111320,-0.200073,-0.991911,-0.040273,-0.000626,0.024086,0.018070,0.074191,0.989044,-0.127626,-0.022197,0.020228,0.002270,0.0000,-0.1830,-0.0610,-0.085408,0.060568,-0.042541,-0.993593
152658.798000,-0.979057,-0.168703,-0.113958,0.164549,-0.985342,0.044995,-0.119878,0.025301,0.992466,0.0255,0.1202,2.9751,0.037590,1.006340,-0.111810,-0.193834,-0.990435,-0.090013,-0.000634,-0.026528,0.018556,0.025301,0.992466,-0.119878,0.026716,0.017295,-0.005969,0.0000,-0.2440,-0.0610,-0.083766,0.058777,-0.017669,-0.994594
152658.873000,-0.977768,-0.175982,-0.114021,0.165174,-0.981361,0.098226,-0.129182,0.077209,0.988611,0.0779,0.1295,2.9742,0.038080,1.005850,-0.112300,-0.201440,-0.991843,-0.038279,-0.000796,0.026736,0.018147,0.077209,0.988611,-0.129182,-0.024696,0.020657,0.002850,0.0000,-0.1830,-0.0610,-0.085852,0.061202,-0.044148,-0.993446
152658.948000,-0.978957,-0.168429,-0.115218,0.164525,-0.985450,0.042664,-0.120727,0.022810,0.992424,0.0230,0.1210,2.9751,0.037590,1.005370,-0.112790,-0.193137,-0.989369,-0.093541,-0.000848,-0.029092,0.017661,0.022810,0.992424,-0.120727,0.029215,0.016383,-0.006088,0.0000,-0.1830,-0.0610,-0.083691,0.059307,-0.016458,-0.994589
152659.023000,-0.977858,-0.175417,-0.114118,0.164881,-0.981624,0.096068,-0.128873,0.075125,0.988811,0.0758,0.1292,2.9745,0.038570,1.006830,-0.112790,-0.201460,-0.992804,-0.040861,-0.000572,0.024076,0.019258,0.075125,0.988811,-0.128873,-0.022086,0.021421,0.002047,0.0610,-0.1830,0.0000,-0.085630,0.061144,-0.043078,-0.993516
152659.098000,-0.978818,-0.168676,-0.116032,0.164168,-0.985291,0.047438,-0.122327,0.027384,0.992112,0.0276,0.1226,2.9754,0.038570,1.005850,-0.113760,-0.194216,-0.990120,-0.090037,-0.000978,-0.025367,0.018391,0.027384,0.992112,-0.122327,0.025662,0.017156,-0.005457,0.0000,-0.1830,-0.0610,-0.083670,0.059919,-0.018809,-0.994513
152659.173000,-0.977941,-0.174891,-0.114209,0.164448,-0.981772,0.095288,-0.128793,0.074405,0.988876,0.0751,0.1292,2.9750,0.039060,1.006830,-0.113280,-0.201347,-0.992849,-0.042137,-0.000237,0.022757,0.019368,0.074405,0.988876,-0.128793,-0.020860,0.021348,0.001479,0.0610,-0.1830,-0.0610,-0.085385,0.061145,-0.042699,-0.993553
152659.248000,-0.978646,-0.170007,-0.115545,0.165195,-0.984988,0.050086,-0.122326,0.029929,0.992039,0.0302,0.1226,2.9744,0.039060,1.006340,-0.113760,-0.196166,-0.990478,-0.087513,-0.000716,-0.023280,0.018938,0.029929,0.992039,-0.122326,0.023619,0.017704,-0.005462,0.0000,-0.1830,-0.0610,-0.084269,0.059800,-0.020116,-0.994444
152659.323000,-0.977602,-0.176014,-0.115386,0.165370,-0.981531,0.096180,-0.130184,0.074945,0.988653,0.0757,0.1306,2.9740,0.039550,1.005850,-0.114250,-0.202525,-0.991721,-0.042719,-0.000567,0.022810,0.018547,0.074945,0.988653,-0.130184,-0.020899,0.020596,0.001912,0.0000,-0.1830,-0.0610,-0.085909,0.061797,-0.043063,-0.993452
152659.398000,-0.978784,-0.169485,-0.115142,0.164824,-0.985109,0.048931,-0.121720,0.028915,0.992143,0.0291,0.1220,2.9748,0.039550,1.005850,-0.113760,-0.196089,-0.989919,-0.088597,-0.000290,-0.024906,0.018433,0.028915,0.992143,-0.121720,0.025118,0.017103,-0.006064,0.0000,-0.1830,-0.0610,-0.084040,0.059544,-0.019569,-0.994489
152659.473000,-0.977518,-0.175918,-0.116235,0.165158,-0.981528,0.096566,-0.131075,0.075198,0.988516,0.0759,0.1315,2.9742,0.039550,1.006340,-0.114740,-0.202358,-0.992299,-0.042931,-0.001010,0.023171,0.019087,0.075198,0.988516,-0.131075,-0.021130,0.021223,0.002313,0.0610,-0.1830,-0.0610,-0.085833,0.062237,-0.043225,-0.993424
152659.549000,-0.978962,-0.167497,-0.116526,0.163279,-0.985557,0.044919,-0.122366,0.024947,0.992171,0.0251,0.1227,2.9763,0.039550,1.005850,-0.114740,-0.193825,-0.990019,-0.093588,-0.000608,-0.028968,0.018457,0.024947,0.992171,-0.122366,0.029112,0.017082,-0.006393,0.0000,-0.1830,-0.0610,-0.083145,0.060049,-0.017562,-0.994572
152659.624000,-0.977997,-0.173635,-0.115642,0.162960,-0.981933,0.096182,-0.130254,0.075221,0.988623,0.0759,0.1306,2.9765,0.041010,1.006340,-0.114740,-0.201574,-0.992512,-0.043078,-0.000478,0.021599,0.019169,0.075221,0.988623,-0.130254,-0.019684,0.021083,0.001490,0.0000,-0.1830,-0.0610,-0.084695,0.061873,-0.043129,-0.993548
152659.699000,-0.978825,-0.167611,-0.117511,0.162518,-0.985349,0.051725,-0.124459,0.031532,0.991724,0.0318,0.1248,2.9771,0.041010,1.005850,-0.115720,-0.195135,-0.990434,-0.088150,-0.000918,-0.023623,0.018774,0.031532,0.991724,-0.124459,0.024022,0.017504,-0.005277,0.0000,-0.1830,-0.0610,-0.082991,0.060829,-0.020930,-0.994472
152659.774000,-0.977787,-0.173755,-0.117225,0.162900,-0.981898,0.096643,-0.131895,0.075400,0.988392,0.0761,0.1323,2.9765,0.040520,1.005850,-0.116210,-0.200769,-0.992272,-0.044364,-0.000548,0.022245,0.018856,0.075400,0.988392,-0.131895,-0.020325,0.020851,0.001672,0.0000,-0.1830,-0.0610,-0.084715,0.062688,-0.043293,-0.993488
152659.849000,-0.979101,-0.166268,-0.117114,0.161471,-0.985641,0.049390,-0.123644,0.029447,0.991890,0.0297,0.1240,2.9781,0.041010,1.005850,-0.115720,-0.193842,-0.990500,-0.090233,-0.000407,-0.025860,0.018720,0.029447,0.991890,-0.123644,0.026108,0.017338,-0.006091,0.0000,-0.1830,-0.0610,-0.082383,0.060518,-0.019817,-0.994564
152659.924000,-0.977953,-0.172733,-0.117346,0.161837,-0.982054,0.096842,-0.131968,0.075716,0.988358,0.0765,0.1324,2.9776,0.041010,1.006340,-0.116210,-0.200298,-0.992897,-0.044073,-0.000732,0.022128,0.019356,0.075716,0.988358,-0.131968,-0.020138,0.021359,0.001742,0.0000,-0.1830,-0.0610,-0.084188,0.062735,-0.043421,-0.993525
152659.999000,-0.979009,-0.166492,-0.117567,0.161256,-0.985500,0.052794,-0.124652,0.032728,0.991661,0.0330,0.1250,2.9783,0.041500,1.005370,-0.116210,-0.194352,-0.990235,-0.087511,-0.000441,-0.022982,0.018399,0.032728,0.991661,-0.124652,0.023324,0.017084,-0.005568,0.0000,-0.2440,-0.1220,-0.082390,0.060889,-0.021499,-0.994506
152660.074000,-0.978146,-0.171361,-0.117756,0.160796,-0.982493,0.094085,-0.131817,0.073095,0.988576,0.0738,0.1322,2.9787,0.041500,1.005370,-0.116690,-0.199134,-0.992075,-0.047340,-0.000552,0.018810,0.018550,0.073095,0.988576,-0.131817,-0.017030,0.020173,0.001119,0.0000,-0.2440,-0.0610,-0.083572,0.062793,-0.042063,-0.993631
152660.149000,-0.979270,-0.164625,-0.118019,0.159434,-0.985827,0.052214,-0.124942,0.032316,0.991638,0.0326,0.1253,2.9802,0.041990,1.005850,-0.116690,-0.192936,-0.990992,-0.088456,-0.000427,-0.023908,0.018932,0.032316,0.991638,-0.124942,0.024251,0.017576,-0.005759,0.0000,-0.1830,-0.0610,-0.081457,0.061071,-0.021248,-0.994577
152660.224000,-0.978152,-0.170912,-0.118352,0.159707,-0.982238,0.098501,-0.133085,0.077448,0.988074,0.0782,0.1335,2.9797,0.041990,1.005370,-0.117180,-0.199034,-0.992349,-0.043507,-0.000736,0.022845,0.018551,0.077448,0.988074,-0.133085,-0.020877,0.020667,0.001900,0.0000,-0.1830,-0.0610,-0.083192,0.063268,-0.044273,-0.993537
152660.299000,-0.979151,-0.164473,-0.119210,0.159344,-0.985883,0.051417,-0.125984,0.031350,0.991537,0.0316,0.1263,2.9803,0.041990,1.004880,-0.117670,-0.192363,-0.990054,-0.090461,-0.000575,-0.024915,0.018088,0.031350,0.991537,-0.125984,0.025225,0.016722,-0.005686,-0.0610,-0.1830,-0.1220,-0.081397,0.061634,-0.020805,-0.994557
152660.374000,-0.978431,-0.169750,-0.117723,0.158737,-0.982505,0.097403,-0.132197,0.076615,0.988258,0.0774,0.1326,2.9808,0.042960,1.005850,-0.117180,-0.198982,-0.992846,-0.044420,-0.000216,0.020925,0.019098,0.076615,0.988258,-0.132197,-0.019059,0.020937,0.001008,0.0610,-0.1830,-0.0610,-0.082648,0.062881,-0.043783,-0.993629
152660.449000,-0.979360,-0.163089,-0.119395,0.157619,-0.986024,0.053968,-0.126528,0.034035,0.991379,0.0343,0.1269,2.9820,0.042960,1.005370,-0.117670,-0.191989,-0.990898,-0.087873,-0.000869,-0.023071,0.018646,0.034035,0.991379,-0.126528,0.023525,0.017344,-0.005145,0.0000,-0.1830,-0.0610,-0.080614,0.061816,-0.022121,-0.994581
152660.525000,-0.978046,-0.170544,-0.119751,0.158558,-0.981920,0.103407,-0.135221,0.082149,0.987404,0.0830,0.1356,2.9809,0.042960,1.005370,-0.118650,-0.199268,-0.992650,-0.040374,-0.000881,0.026731,0.018692,0.082149,0.987404,-0.135221,-0.024562,0.021327,0.002573,0.0000,-0.1830,-0.0610,-0.082822,0.064166,-0.046697,-0.993399
152660.600000,-0.979154,-0.164141,-0.119647,0.159142,-0.985975,0.050265,-0.126219,0.030176,0.991543,0.0304,0.1266,2.9805,0.042960,1.005850,-0.118650,-0.192969,-0.990870,-0.092716,-0.000316,-0.027171,0.019153,0.030176,0.991543,-0.126219,0.027420,0.017663,-0.006432,0.0000,-0.1830,-0.0610,-0.081262,0.061802,-0.020220,-0.994569
152660.675000,-0.977764,-0.171946,-0.120048,0.159821,-0.981622,0.104286,-0.135773,0.082781,0.987276,0.0837,0.1362,2.9796,0.043450,1.005850,-0.119140,-0.201133,-0.992845,-0.040259,-0.000964,0.026932,0.019244,0.082781,0.987276,-0.135773,-0.024678,0.021924,0.002634,0.0000,-0.1830,-0.0610,-0.083500,0.064386,-0.047081,-0.993310
152660.750000,-0.979129,-0.163683,-0.120473,0.158757,-0.986077,0.049474,-0.126894,0.029316,0.991483,0.0296,0.1272,2.9809,0.043450,1.005370,-0.119140,-0.192752,-0.990369,-0.094166,-0.000676,-0.028515,0.018729,0.029316,0.991483,-0.126894,0.028778,0.017240,-0.006242,0.0000,-0.1830,-0.0610,-0.081050,0.062179,-0.019805,-0.994571
152660.825000,-0.978539,-0.167884,-0.119479,0.156610,-0.982760,0.098268,-0.133917,0.077448,0.987962,0.0782,0.1343,2.9829,0.043940,1.006340,-0.119140,-0.197711,-0.993817,-0.045651,-0.000189,0.020773,0.019888,0.077448,0.987962,-0.133917,-0.018843,0.021712,0.000775,0.0000,-0.1830,-0.1220,-0.081643,0.063755,-0.044210,-0.993637
152660.900000,-0.979839,-0.158857,-0.121162,0.154154,-0.986914,0.047311,-0.127092,0.027679,0.991505,0.0279,0.1274,2.9855,0.043940,1.005370,-0.119140,-0.188329,-0.991076,-0.095884,-0.001073,-0.030620,0.018685,0.027679,0.991505,-0.127092,0.030907,0.017208,-0.006044,0.0000,-0.1830,-0.0610,-0.078664,0.062390,-0.018846,-0.994768
152660.975000,-0.978350,-0.167629,-0.121377,0.155268,-0.982271,0.105048,-0.136835,0.083928,0.987032,0.0848,0.1373,2.9842,0.044430,1.004880,-0.120110,-0.197336,-0.992783,-0.040295,-0.001087,0.027042,0.018458,0.083928,0.987032,-0.136835,-0.024831,0.021191,0.002736,0.0000,-0.1830,-0.0610,-0.081258,0.064980,-0.047556,-0.993435
152661.050000,-0.980036,-0.157393,-0.121476,0.152845,-0.987181,0.045949,-0.127151,0.026465,0.991530,0.0267,0.1275,2.9869,0.043940,1.005370,-0.119620,-0.186770,-0.991263,-0.097587,-0.000812,-0.031921,0.018712,0.026465,0.991530,-0.127151,0.032135,0.017186,-0.006463,-0.0610,-0.1830,-0.1220,-0.077963,0.062480,-0.018197,-0.994830
152661.125000,-0.978731,-0.165547,-0.121158,0.153304,-0.982662,0.104275,-0.136319,0.083483,0.987141,0.0844,0.1367,2.9862,0.045410,1.005370,-0.120110,-0.196328,-0.993502,-0.040824,-0.000908,0.025572,0.019013,0.083483,0.987141,-0.136319,-0.023391,0.021546,0.002218,0.0000,-0.1830,-0.0610,-0.080231,0.064787,-0.047244,-0.993546
152661.200000,-0.979739,-0.158746,-0.122109,0.153288,-0.986763,0.052923,-0.128894,0.033133,0.991105,0.0334,0.1293,2.9864,0.044430,1.005370,-0.120600,-0.188402,-0.991634,-0.091943,-0.000696,-0.025584,0.019046,0.033133,0.991105,-0.128894,0.025987,0.017608,-0.005695,0.0000,-0.1830,-0.1220,-0.078425,0.063086,-0.021629,-0.994687
152661.275000,-0.979051,-0.163990,-0.120696,0.152691,-0.983441,0.097618,-0.134705,0.077144,0.987878,0.0779,0.1351,2.9869,0.044430,1.005370,-0.120110,-0.193873,-0.993663,-0.047081,-0.000147,0.019865,0.019105,0.077144,0.987878,-0.134705,-0.018038,0.020830,0.000604,-0.0610,-0.1830,-0.1220,-0.079666,0.064250,-0.043964,-0.993777
152661.350000,-0.979636,-0.159092,-0.122484,0.152853,-0.986498,0.058807,-0.130186,0.038887,0.990727,0.0392,0.1306,2.9868,0.045410,1.005850,-0.121090,-0.189676,-0.992448,-0.086764,-0.000844,-0.020617,0.019735,0.038887,0.990727,-0.130186,0.021241,0.018443,-0.004894,0.0000,-0.1830,-0.0610,-0.078410,0.063511,-0.024556,-0.994593
152661.425000,-0.979055,-0.163796,-0.120924,0.152536,-0.983507,0.097197,-0.134850,0.076716,0.987892,0.0775,0.1353,2.9870,0.044920,1.005370,-0.120600,-0.194072,-0.993658,-0.048069,0.000029,0.018884,0.019210,0.076716,0.987892,-0.134850,-0.017104,0.020810,0.000261,-0.0610,-0.1830,-0.1220,-0.079578,0.064343,-0.043750,-0.993787
152661.500000,-0.979832,-0.157743,-0.122666,0.151700,-0.986770,0.057193,-0.130065,0.037431,0.990799,0.0378,0.1304,2.9880,0.045890,1.004390,-0.121090,-0.188547,-0.991066,-0.088349,-0.000822,-0.022637,0.018275,0.037431,0.990799,-0.130065,0.023152,0.016913,-0.005006,-0.0610,-0.1830,-0.1220,-0.077776,0.063522,-0.023783,-0.994661
152661.576000,-0.979115,-0.162408,-0.122297,0.151016,-0.983728,0.097331,-0.136115,0.076829,0.987710,0.0776,0.1365,2.9886,0.045410,1.004880,-0.121580,-0.192793,-0.993505,-0.049063,-0.000336,0.018514,0.018892,0.076829,0.987710,-0.136115,-0.016707,0.020503,0.000553,-0.0610,-0.1830,-0.1220,-0.078845,0.065006,-0.043812,-0.993800
152661.651000,-0.979811,-0.157904,-0.122629,0.151363,-0.986595,0.060995,-0.130616,0.041202,0.990577,0.0416,0.1310,2.9883,0.045410,1.004880,-0.121580,-0.188258,-0.991952,-0.084962,-0.000305,-0.018339,0.018895,0.041202,0.990577,-0.130616,0.018920,0.017636,-0.004945,-0.0610,-0.1830,-0.1220,-0.077736,0.063654,-0.025688,-0.994608
152661.726000,-0.979336,-0.161089,-0.122274,0.150199,-0.984211,0.093643,-0.135429,0.073342,0.988069,0.0741,0.1358,2.9894,0.045890,1.004390,-0.121580,-0.191871,-0.993024,-0.052680,-0.000222,0.014365,0.018495,0.073342,0.988069,-0.135429,-0.012746,0.019647,-0.000130,-0.0610,-0.1830,-0.1220,-0.078297,0.064819,-0.042001,-0.993934
152661.801000,-0.980122,-0.155132,-0.123673,0.148722,-0.987086,0.059530,-0.131311,0.039954,0.990536,0.0403,0.1317,2.9910,0.045890,1.004390,-0.122070,-0.185694,-0.991861,-0.086811,-0.000688,-0.020070,0.018468,0.039954,0.990536,-0.131311,0.020655,0.017183,-0.004735,-0.0610,-0.1830,-0.1220,-0.076368,0.064085,-0.025004,-0.994704
152661.876000,-0.979499,-0.159757,-0.122715,0.148352,-0.984156,0.097099,-0.136283,0.076903,0.987681,0.0777,0.1367,2.9913,0.046380,1.004390,-0.122070,-0.190908,-0.993449,-0.049646,-0.000166,0.017530,0.018534,0.076903,0.987681,-0.136283,-0.015801,0.020028,0.000237,-0.0610,-0.1830,-0.0610,-0.077500,0.065147,-0.043768,-0.993898
152661.951000,-0.980476,-0.152975,-0.123554,0.146947,-0.987526,0.056559,-0.130665,0.037299,0.990725,0.0376,0.1310,2.9928,0.046870,1.004880,-0.122070,-0.184594,-0.992362,-0.089581,-0.000596,-0.023807,0.018906,0.037299,0.990725,-0.130665,0.024306,0.017458,-0.005384,0.0000,-0.1830,-0.0610,-0.075370,0.063885,-0.023586,-0.994827
152662.026000,-0.979500,-0.159036,-0.123638,0.146949,-0.983928,0.101450,-0.137785,0.081202,0.987128,0.0821,0.1382,2.9927,0.046380,1.004880,-0.122550,-0.190090,-0.994346,-0.045765,-0.000645,0.022077,0.018995,0.081202,0.987128,-0.137785,-0.020077,0.021070,0.001259,0.0000,-0.1830,-0.0610,-0.076974,0.065764,-0.045948,-0.993800
152662.101000,-0.980510,-0.152574,-0.123779,0.146616,-0.987610,0.055953,-0.130782,0.036714,0.990731,0.0370,0.1312,2.9932,0.046870,1.004880,-0.122550,-0.184106,-0.992414,-0.090650,-0.000328,-0.024461,0.018959,0.036714,0.990731,-0.130782,0.024904,0.017456,-0.005745,-0.0610,-0.1830,-0.1220,-0.075185,0.063970,-0.023287,-0.994843
152662.176000,-0.979416,-0.159624,-0.123546,0.147184,-0.983620,0.104057,-0.138133,0.083732,0.986868,0.0846,0.1386,2.9924,0.046870,1.004390,-0.122550,-0.191090,-0.993792,-0.043316,-0.000618,0.024165,0.018485,0.083732,0.986868,-0.138133,-0.022123,0.020833,0.001609,-0.0610,-0.2440,-0.0610,-0.077187,0.065833,-0.047244,-0.993718
152662.251000,-0.980412,-0.151823,-0.125468,0.146219,-0.987843,0.052776,-0.131956,0.033397,0.990693,0.0337,0.1323,2.9935,0.046870,1.004390,-0.123530,-0.182942,-0.991846,-0.095022,-0.000988,-0.027808,0.018532,0.033397,0.990693,-0.131956,0.028239,0.017015,-0.005543,-0.0610,-0.1830,-0.1220,-0.074896,0.064689,-0.021655,-0.994855
152662.326000,-0.979228,-0.160122,-0.124395,0.147259,-0.983342,0.106553,-0.139385,0.086021,0.986495,0.0870,0.1398,2.9923,0.047360,1.004390,-0.123530,-0.191835,-0.993847,-0.042064,-0.000658,0.026032,0.018598,0.086021,0.986495,-0.139385,-0.023893,0.021202,0.001886,-0.0610,-0.1830,-0.1220,-0.077339,0.066369,-0.048453,-0.993613
152662.401000,-0.980228,-0.154233,-0.123956,0.148207,-0.987341,0.056501,-0.131101,0.037013,0.990678,0.0373,0.1315,2.9915,0.046870,1.004880,-0.123040,-0.185677,-0.992165,-0.090844,-0.000171,-0.024194,0.019036,0.037013,0.990678,-0.131101,0.024618,0.017512,-0.005913,-0.0610,-0.2440,-0.1220,-0.076008,0.064100,-0.023502,-0.994767
152662.476000,-0.980360,-0.157059,-0.119277,0.147149,-0.985206,0.087840,-0.131308,0.068563,0.988968,0.0692,0.1317,2.9926,0.040520,0.986320,-0.116690,-0.180717,-0.976016,-0.053098,0.001345,0.013834,-0.000137,0.068563,0.988968,-0.131308,-0.013849,0.000920,0.000735,-0.3660,-0.1220,-0.5490,-0.076488,0.063005,-0.039325,-0.994300
152662.552000,-0.975272,-0.157125,-0.155421,0.142337,-0.984533,0.102154,-0.169068,0.077506,0.982552,0.0787,0.1699,2.9967,0.062980,1.007320,-0.147940,-0.196705,-0.997888,-0.077934,-0.011577,0.002837,0.026252,0.077506,0.982552,-0.169068,0.001061,0.027883,0.007256,2.1970,0.5490,1.7080,-0.075411,0.081713,-0.045242,-0.992769
152662.627000,-0.980950,-0.151894,-0.121098,0.148908,-0.988287,0.033397,-0.124752,0.014729,0.992079,0.0148,0.1251,2.9909,0.000480,0.926260,-0.097650,-0.129339,-0.918600,-0.083294,-0.005592,0.001921,-0.062205,0.014729,0.992079,-0.124752,-0.001966,-0.060970,0.013531,5.0650,1.4640,3.9060,-0.075567,0.061762,-0.012090,-0.995153
152662.702000,-0.976094,-0.160724,-0.146314,0.141186,-0.980682,0.135385,-0.165247,0.111491,0.979930,0.1133,0.1660,2.9979,0.115720,1.062500,-0.159660,-0.260363,-1.047252,-0.057119,-0.007362,-0.010919,0.086239,0.111491,0.979930,-0.165247,0.021506,0.084107,-0.008606,10.5590,0.8540,7.9950,-0.076082,0.078514,-0.062213,-0.992057
152662.777000,-0.975417,-0.149254,-0.162129,0.138396,-0.987427,0.076384,-0.171491,0.052069,0.983809,0.0529,0.1723,3.0006,0.065910,0.966790,-0.149900,-0.184284,-0.956963,-0.108437,-0.009878,-0.028293,-0.013254,0.052069,0.983809,-0.171491,0.028721,-0.013599,0.007992,6.2250,0.2440,4.2720,-0.072397,0.083967,-0.032330,-0.993309
152662.852000,-0.970500,-0.156375,-0.183510,0.129421,-0.980071,0.150700,-0.203418,0.122504,0.971398,0.1254,0.2048,3.0090,0.092280,1.054190,-0.193350,-0.218925,-1.050376,-0.077448,-0.009928,0.024408,0.082030,0.122504,0.971398,-0.203418,-0.012320,0.085184,-0.003892,6.9580,0.7320,5.0650,-0.072156,0.097690,-0.068977,-0.990198
152662.927000,-0.976432,-0.144375,-0.160423,0.130293,-0.986901,0.095136,-0.172057,0.071992,0.982453,0.0731,0.1729,3.0089,0.084960,0.993650,-0.170410,-0.199078,-0.985776,-0.110503,0.005292,-0.028883,0.018022,0.071992,0.982453,-0.172057,0.029038,0.014109,-0.012032,0.3660,-0.3660,0.6100,-0.069137,0.083689,-0.042068,-0.993200
152663.002000,-0.973739,-0.151375,-0.170055,0.128233,-0.981851,0.139729,-0.188121,0.114253,0.975478,0.1166,0.1892,3.0107,0.080560,0.993650,-0.172360,-0.199547,-0.989370,-0.069761,-0.002980,0.020506,0.018274,0.114253,0.975478,-0.188121,-0.017595,0.021198,0.002094,-0.1830,-0.3660,0.0000,-0.070512,0.090326,-0.064050,-0.991346
152663.077000,-0.976520,-0.141525,-0.162415,0.126427,-0.986937,0.099855,-0.174425,0.076977,0.981657,0.0783,0.1753,3.0128,0.087890,0.995600,-0.169920,-0.199131,-0.988451,-0.105495,0.002426,-0.026159,0.020144,0.076977,0.981657,-0.174425,0.027025,0.016768,-0.009189,-0.1830,-0.4270,0.2440,-0.067452,0.084794,-0.044514,-0.993116
152663.152000,-0.975047,-0.144946,-0.168148,0.122627,-0.983047,0.136316,-0.185056,0.112295,0.976291,0.1145,0.1861,3.0165,0.084470,0.994620,-0.171380,-0.197711,-0.990761,-0.071257,-0.001872,0.014410,0.019432,0.112295,0.976291,-0.185056,-0.011713,0.021251,-0.000004,-0.2440,-0.3050,-0.1830,-0.067449,0.089034,-0.062669,-0.991764
152663.227000,-0.976202,-0.138003,-0.167289,0.122385,-0.987394,0.100370,-0.179031,0.077507,0.980786,0.0789,0.1800,3.0169,0.084960,0.994140,-0.171870,-0.191380,-0.988461,-0.106725,0.000383,-0.022439,0.018953,0.077507,0.980786,-0.179031,0.023572,0.016273,-0.006513,-0.3050,-0.3660,0.0000,-0.065554,0.087188,-0.044782,-0.993023
152663.302000,-0.975807,-0.142140,-0.166121,0.119657,-0.983131,0.138333,-0.182982,0.115108,0.976354,0.1174,0.1840,3.0196,0.084960,0.995110,-0.170890,-0.195961,-0.991797,-0.067850,-0.000048,0.016606,0.019822,0.115108,0.976354,-0.182982,-0.014037,0.021658,-0.001594,-0.1830,-0.4270,-0.4880,-0.065985,0.087990,-0.063879,-0.991879
152663.377000,-0.976723,-0.134938,-0.166746,0.119043,-0.987642,0.101939,-0.178440,0.079717,0.980716,0.0811,0.1794,3.0203,0.086910,0.993160,-0.170410,-0.190486,-0.987912,-0.103461,-0.000179,-0.022089,0.017883,0.079717,0.980716,-0.178440,0.023265,0.015316,-0.005645,-0.3050,-0.3050,-0.1830,-0.063936,0.086895,-0.045729,-0.993111
152663.452000,-0.975800,-0.139884,-0.168067,0.117804,-0.983834,0.134881,-0.184218,0.111818,0.976504,0.1140,0.1853,3.0214,0.082030,0.995600,-0.171380,-0.190510,-0.992958,-0.071138,-0.000969,0.016327,0.020173,0.111818,0.976504,-0.184218,-0.013672,0.022064,-0.000847,-0.0610,-0.3660,-0.6710,-0.064942,0.088783,-0.062173,-0.991985
152663.528000,-0.976954,-0.134205,-0.165984,0.118516,-0.987791,0.101107,-0.177526,0.079105,0.980932,0.0805,0.1785,3.0209,0.083980,0.994620,-0.170410,-0.187242,-0.989754,-0.103390,0.000846,-0.019800,0.019121,0.079105,0.980932,-0.177526,0.020958,0.016614,-0.006568,-0.2440,-0.1830,-0.1220,-0.063614,0.086467,-0.045362,-0.993186
152663.603000,-0.977497,-0.136816,-0.160562,0.115063,-0.983758,0.137771,-0.176804,0.116196,0.977363,0.1183,0.1777,3.0244,0.086910,0.997550,-0.166500,-0.194702,-0.994287,-0.062186,0.001463,0.015796,0.021537,0.116196,0.977363,-0.176804,-0.013237,0.022991,-0.003420,-0.1830,-0.3050,-0.3050,-0.063459,0.084996,-0.063985,-0.992298
152663.678000,-0.975016,-0.133133,-0.177819,0.116522,-0.988055,0.100845,-0.189121,0.077606,0.978882,0.0791,0.1903,3.0226,0.081540,0.991210,-0.175780,-0.180209,-0.987596,-0.110565,-0.005122,-0.018328,0.016668,0.077606,0.978882,-0.189121,0.020084,0.015378,-0.000294,-0.3660,0.3660,-0.0610,-0.062872,0.092408,-0.044940,-0.992718
152663.753000,-0.977065,-0.135413,-0.164341,0.114424,-0.984742,0.131115,-0.179588,0.109303,0.977651,0.1113,0.1806,3.0250,0.082030,0.995600,-0.171380,-0.186801,-0.993493,-0.073459,0.003424,0.013102,0.020214,0.109303,0.977651,-0.179588,-0.011157,0.020917,-0.005477,0.1220,-0.4880,-0.6710,-0.062937,0.086641,-0.060565,-0.992403
152663.828000,-0.977095,-0.129864,-0.168585,0.113836,-0.988298,0.101529,-0.179798,0.080013,0.980444,0.0814,0.1808,3.0256,0.083980,0.995110,-0.170410,-0.182557,-0.991207,-0.102555,-0.001369,-0.018529,0.019621,0.080013,0.980444,-0.179798,0.020059,0.017587,-0.004300,-0.3050,-0.1220,-0.0610,-0.061342,0.087691,-0.045696,-0.993207
152663.903000,-0.977263,-0.133425,-0.164786,0.111087,-0.984173,0.138071,-0.180600,0.116626,0.976618,0.1189,0.1816,3.0284,0.084960,0.993650,-0.169430,-0.187686,-0.991879,-0.064927,0.001255,0.017849,0.018102,0.116626,0.976618,-0.180600,-0.015623,0.019937,-0.002513,-0.4880,-0.0610,0.2440,-0.061607,0.087023,-0.064173,-0.992226
152663.978000,-0.977486,-0.126942,-0.168544,0.111994,-0.989114,0.095451,-0.178826,0.074426,0.981062,0.0757,0.1798,3.0275,0.083980,0.994140,-0.169920,-0.179648,-0.990132,-0.107730,-0.001279,-0.024343,0.018462,0.074426,0.981062,-0.178826,0.025614,0.016004,-0.004778,-0.2440,-0.1830,-0.1220,-0.060128,0.087416,-0.042750,-0.993436
152664.053000,-0.976848,-0.133514,-0.167161,0.110463,-0.983920,0.140351,-0.183212,0.118636,0.975889,0.1210,0.1843,3.0290,0.083490,0.994620,-0.170410,-0.185867,-0.993322,-0.063600,-0.000215,0.021703,0.019045,0.118636,0.975889,-0.183212,-0.019066,0.021668,-0.000882,-0.1830,-0.1830,-0.1830,-0.061483,0.088295,-0.065266,-0.992050
152664.128000,-0.977821,-0.127086,-0.166476,0.112010,-0.988956,0.097054,-0.176972,0.076255,0.981257,0.0776,0.1779,3.0275,0.084960,0.994140,-0.169430,-0.181211,-0.990088,-0.105482,0.000235,-0.023641,0.018462,0.076255,0.981257,-0.176972,0.024758,0.015783,-0.006145,-0.2440,-0.2440,-0.1830,-0.060166,0.086425,-0.043612,-0.993483
152664.203000,-0.976324,-0.132520,-0.170966,0.111910,-0.985818,0.125056,-0.185114,0.102963,0.977308,0.1050,0.1862,3.0275,0.074210,0.996580,-0.171870,-0.175136,-0.995635,-0.079097,-0.001723,0.015223,0.020681,0.102963,0.977308,-0.185114,-0.012650,0.022410,-0.000442,-0.1830,-0.1830,-0.3050,-0.061575,0.089701,-0.057441,-0.992402
152664.278000,-0.975824,-0.131256,-0.174754,0.114087,-0.987912,0.104949,-0.186417,0.082475,0.979003,0.0840,0.1875,3.0252,0.078120,0.999020,-0.177240,-0.176385,-0.996632,-0.105687,-0.001214,-0.009911,0.024428,0.082475,0.979003,-0.186417,0.011965,0.023087,-0.004500,-0.4270,-0.2440,-0.6100,-0.061779,0.090946,-0.047195,-0.992817
152664.353000,-0.976224,-0.136640,-0.168273,0.113512,-0.983600,0.140168,-0.184666,0.117734,0.975724,0.1201,0.1857,3.0258,0.089350,0.989250,-0.173820,-0.193148,-0.987248,-0.069632,0.001640,0.014061,0.015075,0.117734,0.975724,-0.184666,-0.012279,0.016404,-0.002789,-0.7930,-1.8310,-1.0370,-0.063048,0.088954,-0.065001,-0.991911
152664.428000,-0.967359,-0.147898,-0.205774,0.138310,-0.988551,0.060309,-0.212338,0.029880,0.976739,0.0306,0.2140,2.9996,-0.008780,0.978510,-0.212400,-0.092520,-0.981331,-0.176358,0.014763,0.020609,0.009249,0.029880,0.976739,-0.212338,-0.022280,0.007239,-0.013394,-1.2810,-9.1550,1.0370,-0.072162,0.105419,-0.022739,-0.991545
152664.503000,-0.972564,-0.172236,-0.156377,0.149688,-0.977881,0.146089,-0.178079,0.118673,0.976834,0.1209,0.1790,2.9889,0.184080,1.009760,-0.115230,-0.334927,-0.976705,-0.025510,-0.066508,-0.066942,0.033201,0.118673,0.976834,-0.178079,0.080856,0.033052,0.048750,2.0140,-16.9060,2.5630,-0.081223,0.084385,-0.066801,-0.990868
152664.579000,-0.970845,-0.165478,-0.173427,0.151668,-0.984311,0.090153,-0.185624,0.061221,0.980712,0.0623,0.1867,2.9866,0.081050,0.994140,-0.173820,-0.213050,-0.981921,-0.124650,-0.007002,-0.034213,0.018680,0.061221,0.980712,-0.185624,0.035979,0.016449,-0.001859,0.7930,-2.1970,-0.4270,-0.079930,0.090491,-0.038151,-0.991951
152664.654000,-0.971362,-0.169967,-0.166030,0.147403,-0.979124,0.139959,-0.186353,0.111478,0.976138,0.1137,0.1874,2.9910,0.077630,0.994620,-0.174310,-0.215519,-0.986810,-0.073739,0.000998,0.020108,0.019394,0.111478,0.976138,-0.186353,-0.017696,0.021580,-0.001619,0.0610,0.0610,-1.0980,-0.080080,0.088915,-0.063444,-0.990786
152664.729000,-0.971976,-0.161210,-0.171098,0.147034,-0.984787,0.092603,-0.183423,0.064850,0.980893,0.0660,0.1845,2.9915,0.078120,0.993650,-0.175780,-0.206042,-0.983325,-0.122312,-0.001624,-0.028413,0.018572,0.064850,0.980893,-0.183423,0.029447,0.015863,-0.006005,-0.3660,0.2440,-0.4880,-0.077669,0.089329,-0.039674,-0.992176
152664.804000,-0.972180,-0.163956,-0.167282,0.141554,-0.980250,0.138106,-0.186622,0.110585,0.976188,0.1128,0.1877,2.9970,0.078610,0.993650,-0.174800,-0.210097,-0.987038,-0.075426,0.000937,0.018088,0.018652,0.110585,0.976188,-0.186622,-0.015821,0.020550,-0.001832,-0.2440,-0.1220,-0.1830,-0.077068,0.089276,-0.062735,-0.991037
152664.879000,-0.973214,-0.156932,-0.168011,0.141984,-0.985042,0.097635,-0.180820,0.071165,0.980938,0.0724,0.1818,2.9967,0.079580,0.993650,-0.173820,-0.204181,-0.984459,-0.114183,-0.000021,-0.023586,0.018421,0.071165,0.980938,-0.180820,0.024547,0.015770,-0.006659,-0.4270,-0.0610,0.1830,-0.075304,0.087878,-0.042525,-0.992370
152664.954000,-0.972548,-0.161559,-0.167476,0.139027,-0.980547,0.138561,-0.186604,0.111473,0.976090,0.1137,0.1877,2.9996,0.080560,0.994140,-0.174310,-0.209768,-0.987753,-0.074355,0.000181,0.017198,0.019192,0.111473,0.976090,-0.186604,-0.014753,0.021085,-0.001366,-0.5490,0.0000,0.2440,-0.075821,0.089314,-0.063069,-0.991109
152665.029000,-0.973731,-0.154588,-0.167187,0.139418,-0.985270,0.099022,-0.180031,0.073112,0.980940,0.0744,0.1810,2.9994,0.080070,0.993650,-0.172850,-0.202674,-0.984966,-0.111323,0.000113,-0.022071,0.018303,0.073112,0.980940,-0.180031,0.023066,0.015750,-0.006483,-0.3050,-0.1830,-0.1830,-0.074059,0.087464,-0.043360,-0.992464
152665.104000,-0.972600,-0.160656,-0.168045,0.137737,-0.980496,0.140201,-0.187291,0.113214,0.975758,0.1155,0.1884,3.0009,0.079580,0.994620,-0.173820,-0.207982,-0.988630,-0.071906,-0.000685,0.020188,0.019437,0.113214,0.975758,-0.187291,-0.017483,0.021912,-0.000194,-0.2440,-0.1830,-0.1830,-0.075271,0.089635,-0.063925,-0.991067
152665.179000,-0.974194,-0.151353,-0.167445,0.137274,-0.986181,0.092747,-0.179169,0.067368,0.981509,0.0685,0.1801,3.0016,0.080070,0.994140,-0.172850,-0.199527,-0.985442,-0.117027,0.000174,-0.027977,0.018635,0.067368,0.981509,-0.179169,0.028820,0.015667,-0.007349,-0.3660,-0.1830,0.0000,-0.072687,0.087290,-0.040323,-0.992709
152665.254000,-0.973344,-0.158323,-0.165937,0.134654,-0.980174,0.145355,-0.185660,0.119136,0.975365,0.1215,0.1867,3.0041,0.081540,0.994620,-0.172360,-0.208237,-0.988974,-0.064757,0.000071,0.024232,0.019213,0.119136,0.975365,-0.185660,-0.021474,0.022250,-0.000373,-0.4880,-0.1830,0.1830,-0.073904,0.088691,-0.066719,-0.991070
152665.329000,-0.974403,-0.150426,-0.167066,0.136451,-0.986341,0.092259,-0.178663,0.067101,0.981620,0.0683,0.1796,3.0025,0.081050,0.994620,-0.171870,-0.199878,-0.985832,-0.116451,-0.000488,-0.029107,0.018955,0.067101,0.981620,-0.178663,0.030055,0.016003,-0.006883,-0.1830,-0.1830,-0.1830,-0.072242,0.087062,-0.040130,-0.992769
152665.404000,-0.973514,-0.155234,-0.167846,0.132882,-0.981601,0.137121,-0.186044,0.111186,0.976230,0.1134,0.1871,3.0059,0.080070,0.993650,-0.172850,-0.203185,-0.988429,-0.073158,-0.000646,0.017475,0.018392,0.111186,0.976230,-0.186044,-0.015008,0.020460,-0.000471,-0.1220,-0.2440,-0.3050,-0.072655,0.089242,-0.062616,-0.991381
152665.479000,-0.974716,-0.148815,-0.166681,0.133560,-0.986051,0.099326,-0.179137,0.074553,0.980995,0.0759,0.1801,3.0054,0.081540,0.995110,-0.172360,-0.198836,-0.987458,-0.109502,0.000434,-0.022018,0.019740,0.074553,0.980995,-0.179137,0.023118,0.017105,-0.006900,-0.2440,-0.2440,-0.1830,-0.071113,0.087091,-0.043790,-0.992694
152665.555000,-0.973700,-0.154886,-0.167086,0.131642,-0.981037,0.142256,-0.185951,0.116519,0.975626,0.1189,0.1870,3.0072,0.081050,0.994620,-0.172360,-0.204172,-0.989609,-0.067338,-0.000599,0.022102,0.019225,0.116519,0.975626,-0.185951,-0.019350,0.022000,-0.000082,-0.2440,-0.3050,-0.1830,-0.072264,0.089038,-0.065264,-0.991257
152665.630000,-0.974843,-0.147824,-0.166824,0.133662,-0.986634,0.093205,-0.178372,0.068562,0.981572,0.0697,0.1793,3.0053,0.081050,0.994620,-0.171870,-0.197368,-0.986512,-0.114966,0.000089,-0.027674,0.018995,0.068562,0.981572,-0.178372,0.028593,0.016051,-0.007174,-0.2440,-0.3050,-0.1830,-0.070878,0.086920,-0.040733,-0.992856
152665.705000,-0.973769,-0.154162,-0.167354,0.131003,-0.981216,0.141611,-0.186041,0.115973,0.975674,0.1183,0.1871,3.0079,0.081050,0.994620,-0.172360,-0.203411,-0.989727,-0.067897,-0.000783,0.021561,0.019236,0.115973,0.975674,-0.186041,-0.018804,0.021952,0.000008,-0.1220,-0.4270,-0.4270,-0.071917,0.089125,-0.064962,-0.991294
152665.780000,-0.974948,-0.145411,-0.168322,0.131313,-0.987052,0.092118,-0.179538,0.067707,0.981418,0.0689,0.1805,3.0077,0.080560,0.994140,-0.172360,-0.194089,-0.986567,-0.116310,-0.000531,-0.027987,0.018577,0.067707,0.981418,-0.179538,0.028960,0.015743,-0.006492,-0.1830,-0.3660,-0.1830,-0.069676,0.087587,-0.040242,-0.992902
152665.855000,-0.974320,-0.150830,-0.167188,0.127968,-0.981845,0.140018,-0.185271,0.115028,0.975932,0.1173,0.1863,3.0110,0.081050,0.994140,-0.172360,-0.200098,-0.989853,-0.068874,-0.000113,0.020417,0.018793,0.115028,0.975932,-0.185271,-0.017868,0.021218,-0.000759,-0.2440,-0.1830,-0.1220,-0.070299,0.088872,-0.064310,-0.991476
152665.930000,-0.975341,-0.142592,-0.168457,0.128263,-0.987357,0.093137,-0.179607,0.069233,0.981299,0.0704,0.1806,3.0108,0.081540,0.994620,-0.172360,-0.192319,-0.987640,-0.114921,-0.000535,-0.027374,0.019133,0.069233,0.981299,-0.179607,0.028429,0.016316,-0.006426,-0.1830,-0.1830,-0.2440,-0.068193,0.087632,-0.040880,-0.992975
152666.005000,-0.974525,-0.149749,-0.166964,0.126450,-0.981695,0.142424,-0.185235,0.117683,0.975622,0.1200,0.1863,3.0126,0.080560,0.994140,-0.171870,-0.198683,-0.990234,-0.065609,-0.000147,0.023673,0.018592,0.117683,0.975622,-0.185235,-0.021029,0.021535,-0.000307,-0.3050,-0.2440,-0.1220,-0.069646,0.088810,-0.065588,-0.991444
152666.080000,-0.975164,-0.143067,-0.169077,0.128130,-0.987078,0.096229,-0.180659,0.072175,0.980894,0.0734,0.1817,3.0109,0.081050,0.994620,-0.172850,-0.192109,-0.988015,-0.112403,-0.000691,-0.023825,0.019280,0.072175,0.980894,-0.180659,0.025008,0.016736,-0.005862,-0.2440,-0.2440,-0.1830,-0.068286,0.088062,-0.042403,-0.992867
152666.155000,-0.975112,-0.146879,-0.166082,0.124910,-0.982829,0.135813,-0.183178,0.111687,0.976715,0.1139,0.1842,3.0142,0.081050,0.994140,-0.171380,-0.196589,-0.990221,-0.071203,0.000576,0.016844,0.018671,0.111687,0.976715,-0.183178,-0.014554,0.020428,-0.001877,-0.2440,-0.2440,-0.1220,-0.068509,0.088037,-0.062387,-0.991798
152666.230000,-0.975709,-0.139483,-0.168929,0.124813,-0.987661,0.094596,-0.180039,0.071213,0.981078,0.0725,0.1810,3.0144,0.081050,0.994620,-0.171870,-0.188779,-0.988489,-0.112380,-0.001040,-0.024745,0.019070,0.071213,0.981078,-0.180039,0.025942,0.016544,-0.005507,-0.1830,-0.2440,-0.2440,-0.066538,0.087854,-0.041743,-0.993032
152666.305000,-0.974562,-0.148848,-0.167551,0.125241,-0.981675,0.143627,-0.185859,0.118990,0.975345,0.1214,0.1869,3.0138,0.080070,0.994620,-0.171870,-0.197283,-0.991051,-0.064165,-0.000645,0.025644,0.018976,0.118990,0.975345,-0.185859,-0.022820,0.022299,0.000313,-0.1830,-0.1220,-0.3050,-0.069116,0.089118,-0.066223,-0.991411
152666.380000,-0.975585,-0.140832,-0.168525,0.126598,-0.987635,0.092471,-0.179464,0.068878,0.981350,0.0701,0.1804,3.0125,0.081540,0.995110,-0.172360,-0.190645,-0.988421,-0.115238,-0.000465,-0.027720,0.019601,0.068878,0.981350,-0.179464,0.028793,0.016750,-0.006573,-0.1830,-0.2440,-0.1830,-0.067325,0.087606,-0.040620,-0.993047
152666.455000,-0.974930,-0.147512,-0.166590,0.124329,-0.982032,0.141967,-0.184539,0.117696,0.975753,0.1200,0.1856,3.0148,0.081050,0.994620,-0.171380,-0.197187,-0.991003,-0.065118,-0.000104,0.023224,0.019012,0.117696,0.975753,-0.184539,-0.020554,0.021866,-0.000520,-0.1830,-0.2440,-0.1830,-0.068539,0.088530,-0.065469,-0.991554
152666.531000,-0.975708,-0.140124,-0.168399,0.125971,-0.987756,0.092028,-0.179232,0.068579,0.981414,0.0698,0.1802,3.0132,0.081540,0.994620,-0.171870,-0.189987,-0.987987,-0.115080,-0.000641,-0.028018,0.019022,0.068579,0.981414,-0.179232,0.029069,0.016198,-0.006314,-0.2440,-0.2440,-0.0610,-0.066987,0.087513,-0.040432,-0.993086
152666.606000,-0.974871,-0.147634,-0.166823,0.124343,-0.981969,0.142391,-0.184837,0.118070,0.975651,0.1204,0.1859,3.0147,0.081540,0.994140,-0.171380,-0.197670,-0.990479,-0.064900,-0.000352,0.023107,0.018584,0.118070,0.975651,-0.184837,-0.020444,0.021481,-0.000219,-0.1830,-0.1830,-0.1830,-0.068575,0.088666,-0.065672,-0.991526
152666.681000,-0.975698,-0.140926,-0.167790,0.126879,-0.987667,0.091739,-0.178649,0.068220,0.981545,0.0694,0.1796,3.0123,0.080560,0.994620,-0.171380,-0.190014,-0.987854,-0.114756,-0.000452,-0.027416,0.018872,0.068220,0.981545,-0.178649,0.028429,0.016084,-0.006409,-0.1220,-0.2440,-0.2440,-0.067417,0.087212,-0.040268,-0.993090
152666.756000,-0.974979,-0.146932,-0.166813,0.123841,-0.982189,0.141312,-0.184605,0.117118,0.975810,0.1194,0.1857,3.0153,0.081050,0.994620,-0.171380,-0.196575,-0.991085,-0.065709,-0.000261,0.022645,0.019025,0.117118,0.975810,-0.184605,-0.019976,0.021809,-0.000454,-0.1830,-0.3050,-0.1830,-0.068267,0.088600,-0.065156,-0.991587
152666.831000,-0.975645,-0.138779,-0.169871,0.125105,-0.988165,0.088766,-0.180180,0.065352,0.981460,0.0665,0.1812,3.0141,0.080560,0.994140,-0.172360,-0.187285,-0.987595,-0.118710,-0.001305,-0.030282,0.018510,0.065352,0.981460,-0.180180,0.031315,0.015701,-0.005850,-0.0610,-0.3050,-0.3660,-0.066427,0.088118,-0.038796,-0.993135
152666.906000,-0.974981,-0.146881,-0.166846,0.123535,-0.982036,0.142633,-0.184799,0.118454,0.975612,0.1208,0.1859,3.0156,0.081050,0.994140,-0.171380,-0.196448,-0.990713,-0.064419,-0.000211,0.023977,0.018528,0.118454,0.975612,-0.184799,-0.021320,0.021531,-0.000256,-0.1830,-0.1830,-0.1220,-0.068180,0.088661,-0.065828,-0.991543
152666.981000,-0.975977,-0.137422,-0.169069,0.123954,-0.988392,0.087840,-0.179178,0.064773,0.981682,0.0659,0.1802,3.0153,0.081050,0.995110,-0.171870,-0.186795,-0.988610,-0.118788,-0.001010,-0.031363,0.019365,0.064773,0.981682,-0.179178,0.032392,0.016426,-0.006371,-0.1220,-0.2440,-0.2440,-0.065789,0.087655,-0.038413,-0.993234
152667.056000,-0.974988,-0.145805,-0.167746,0.122175,-0.982079,0.143508,-0.185664,0.119424,0.975329,0.1218,0.1867,3.0169,0.080560,0.995110,-0.171870,-0.194807,-0.992099,-0.063747,-0.000618,0.025628,0.019489,0.119424,0.975329,-0.185664,-0.022752,0.022790,0.000115,-0.1220,-0.2440,-0.2440,-0.067569,0.089109,-0.066295,-0.991514
152667.131000,-0.975962,-0.138780,-0.168042,0.124366,-0.987820,0.093508,-0.178972,0.070362,0.981335,0.0716,0.1799,3.0148,0.082030,0.994620,-0.171870,-0.189211,-0.988375,-0.113360,-0.000173,-0.026738,0.019093,0.070362,0.981335,-0.178972,0.027780,0.016265,-0.006574,-0.1830,-0.2440,-0.0610,-0.066243,0.087355,-0.041251,-0.993116
152667.206000,-0.974950,-0.146251,-0.167580,0.122812,-0.982127,0.142630,-0.185445,0.118477,0.975486,0.1209,0.1865,3.0163,0.081050,0.995110,-0.171870,-0.195754,-0.991885,-0.064790,-0.000573,0.024144,0.019561,0.118477,0.975486,-0.185445,-0.021311,0.022622,-0.000104,-0.1830,-0.1830,-0.2440,-0.067840,0.089010,-0.065834,-0.991535
152667.281000,-0.975955,-0.138147,-0.168602,0.124320,-0.988149,0.090031,-0.179041,0.066906,0.981564,0.0681,0.1800,3.0149,0.081050,0.994620,-0.171870,-0.187528,-0.988231,-0.116667,-0.000538,-0.029254,0.018951,0.066906,0.981564,-0.179041,0.030250,0.016058,-0.006505,-0.1220,-0.2440,-0.3050,-0.066067,0.087507,-0.039504,-0.993185
152667.356000,-0.975052,-0.145044,-0.168038,0.121602,-0.982325,0.142303,-0.185708,0.118319,0.975455,0.1207,0.1868,3.0175,0.081540,0.995110,-0.172360,-0.194878,-0.992134,-0.065532,-0.000490,0.023465,0.019707,0.118319,0.975455,-0.185708,-0.020648,0.022645,-0.000328,-0.1830,-0.2440,-0.1830,-0.067228,0.089189,-0.065710,-0.991568
152667.431000,-0.976270,-0.136570,-0.168063,0.122905,-0.988398,0.089236,-0.178300,0.066463,0.981729,0.0676,0.1793,3.0164,0.080560,0.994140,-0.171380,-0.185615,-0.987998,-0.116539,-0.000119,-0.029281,0.018353,0.066463,0.981729,-0.178300,0.030177,0.015425,-0.006755,-0.2440,-0.2440,-0.0610,-0.065308,0.087177,-0.039188,-0.993277
152667.506000,-0.974805,-0.146822,-0.167924,0.122613,-0.981588,0.146463,-0.186336,0.122184,0.974859,0.1247,0.1874,3.0165,0.081540,0.995110,-0.171870,-0.196728,-0.991963,-0.061157,-0.001069,0.027574,0.019510,0.122184,0.974859,-0.186336,-0.024526,0.023238,0.000787,-0.1830,-0.2440,-0.1220,-0.067945,0.089336,-0.067746,-0.991369
152667.582000,-0.975696,-0.140720,-0.167976,0.126224,-0.987528,0.094108,-0.179124,0.070618,0.981289,0.0718,0.1801,3.0129,0.081050,0.994140,-0.171870,-0.190105,-0.987685,-0.112968,-0.000134,-0.025515,0.018584,0.070618,0.981289,-0.179124,0.026528,0.015858,-0.006418,-0.1220,-0.1220,-0.3050,-0.067204,0.087383,-0.041470,-0.993040
152667.657000,-0.974508,-0.149363,-0.167408,0.125682,-0.981545,0.144128,-0.185846,0.119414,0.975296,0.1218,0.1869,3.0133,0.081050,0.994620,-0.171870,-0.198771,-0.990849,-0.063915,-0.000705,0.025103,0.019061,0.119414,0.975296,-0.185846,-0.022259,0.022327,0.000300,-0.1830,-0.2440,-0.2440,-0.069359,0.089081,-0.066458,-0.991381
152667.732000,-0.975786,-0.141140,-0.167095,0.126907,-0.987541,0.093049,-0.178146,0.069591,0.981540,0.0708,0.1791,3.0123,0.082510,0.994620,-0.171380,-0.192256,-0.987703,-0.113699,-0.000031,-0.028043,0.019000,0.069591,0.981540,-0.178146,0.029020,0.016045,-0.006913,-0.1830,-0.1830,-0.1220,-0.067478,0.086911,-0.040943,-0.993084
152667.807000,-0.974614,-0.148045,-0.167959,0.124801,-0.982050,0.141431,-0.185882,0.116879,0.975596,0.1192,0.1870,3.0142,0.080560,0.995110,-0.171870,-0.196969,-0.991501,-0.066343,-0.001116,0.023071,0.019550,0.116879,0.975596,-0.185882,-0.020207,0.022523,0.000333,0.0610,-0.1220,-0.5490,-0.068796,0.089219,-0.065131,-0.991496
152667.882000,-0.975336,-0.144251,-0.167070,0.128526,-0.986504,0.101445,-0.179448,0.077470,0.980712,0.0788,0.1804,3.0106,0.081050,0.994620,-0.171870,-0.193812,-0.988215,-0.106046,0.000282,-0.018489,0.019203,0.077470,0.980712,-0.179448,0.019686,0.016910,-0.006097,-0.1830,-0.1220,-0.2440,-0.068689,0.087258,-0.045053,-0.992793
152667.957000,-0.974054,-0.152321,-0.167383,0.128818,-0.981257,0.143322,-0.186076,0.118041,0.975419,0.1204,0.1872,3.0101,0.082030,0.994140,-0.172360,-0.202479,-0.989643,-0.066038,-0.000648,0.022640,0.018819,0.118041,0.975419,-0.186076,-0.019896,0.021709,0.000046,-0.3050,-0.3660,0.0610,-0.070901,0.089140,-0.065914,-0.991303
152668.032000,-0.975318,-0.143459,-0.167851,0.129536,-0.987372,0.091202,-0.178815,0.067208,0.981584,0.0684,0.1798,3.0096,0.081050,0.994620,-0.171870,-0.192888,-0.987235,-0.116351,-0.000424,-0.028978,0.018959,0.067208,0.981584,-0.178815,0.029947,0.016038,-0.006730,-0.1220,-0.2440,-0.3050,-0.068729,0.087277,-0.039881,-0.993010
152668.107000,-0.973926,-0.151858,-0.168546,0.128108,-0.981271,0.143857,-0.187235,0.118514,0.975140,0.1209,0.1883,3.0108,0.080560,0.994620,-0.172850,-0.200367,-0.990537,-0.065760,-0.001174,0.024744,0.019221,0.118514,0.975140,-0.187235,-0.021824,0.022501,0.000715,0.0000,-0.1220,-0.4270,-0.070609,0.089730,-0.066171,-0.991254
152668.182000,-0.975704,-0.141387,-0.167367,0.128013,-0.987841,0.088221,-0.177805,0.064652,0.981940,0.0657,0.1788,3.0111,0.080560,0.994140,-0.171380,-0.190478,-0.986859,-0.118336,0.000004,-0.031185,0.018296,0.064652,0.981940,-0.177805,0.031988,0.015214,-0.007249,-0.1830,-0.1220,-0.1830,-0.067814,0.086887,-0.038481,-0.993162
152668.257000,-0.974635,-0.147342,-0.168453,0.124497,-0.982436,0.138999,-0.185975,0.114501,0.975860,0.1168,0.1871,3.0145,0.081050,0.994620,-0.172850,-0.196427,-0.991086,-0.069866,-0.000583,0.019972,0.019363,0.114501,0.975860,-0.185975,-0.017318,0.021770,-0.000546,-0.3050,-0.4270,0.0610,-0.068537,0.089359,-0.063913,-0.991581
152668.332000,-0.975934,-0.140346,-0.166900,0.125880,-0.987548,0.094353,-0.178064,0.071073,0.981449,0.0723,0.1790,3.0133,0.081050,0.994140,-0.171380,-0.190020,-0.987729,-0.111976,0.000546,-0.025135,0.018500,0.071073,0.981449,-0.178064,0.026060,0.015694,-0.006991,-0.2440,-0.2440,-0.1220,-0.067020,0.086841,-0.041644,-0.993093
152668.407000,-0.974782,-0.146946,-0.167948,0.124164,-0.982483,0.138963,-0.185426,0.114605,0.975952,0.1169,0.1865,3.0149,0.080560,0.994140,-0.171870,-0.195748,-0.990606,-0.068741,-0.000810,0.020569,0.018659,0.114605,0.975952,-0.185426,-0.017951,0.021205,-0.000116,-0.1830,-0.1830,-0.2440,-0.068351,0.089091,-0.063928,-0.991617
152668.482000,-0.975776,-0.141255,-0.167056,0.126230,-0.987205,0.097425,-0.178680,0.073977,0.981122,0.0753,0.1796,3.0129,0.081050,0.994140,-0.171380,-0.190883,-0.987886,-0.109083,0.000273,-0.022103,0.018570,0.073977,0.981122,-0.178680,0.023156,0.016020,-0.006375,-0.1830,-0.2440,-0.1830,-0.067343,0.087044,-0.043153,-0.992988
152668.558000,-0.974678,-0.148030,-0.167601,0.124869,-0.982071,0.141224,-0.185502,0.116719,0.975687,0.1191,0.1866,3.0142,0.081540,0.994140,-0.171870,-0.197832,-0.990406,-0.066782,-0.000730,0.021762,0.018707,0.116719,0.975687,-0.185502,-0.019080,0.021448,-0.000041,-0.1830,-0.3050,-0.1830,-0.068808,0.089031,-0.065037,-0.991519
152668.633000,-0.975869,-0.138934,-0.168456,0.125125,-0.988047,0.090037,-0.178951,0.066787,0.981588,0.0679,0.1799,3.0141,0.081050,0.994620,-0.171870,-0.188328,-0.988065,-0.116782,-0.000485,-0.029388,0.018947,0.066787,0.981588,-0.178951,0.030369,0.016034,-0.006594,-0.1830,-0.2440,-0.2440,-0.066469,0.087450,-0.039476,-0.993165
152668.708000,-0.974923,-0.147009,-0.167073,0.123316,-0.981817,0.144323,-0.185252,0.120101,0.975324,0.1225,0.1863,3.0158,0.081050,0.994140,-0.171380,-0.196532,-0.990803,-0.062769,-0.000461,0.025723,0.018485,0.120101,0.975324,-0.185252,-0.022968,0.021818,0.000197,-0.1830,-0.2440,-0.1830,-0.068163,0.088839,-0.066674,-0.991472
152668.783000,-0.975723,-0.140255,-0.168208,0.125727,-0.987586,0.094167,-0.179327,0.070733,0.981244,0.0720,0.1803,3.0134,0.081050,0.995110,-0.171870,-0.189742,-0.988751,-0.112794,-0.000473,-0.025299,0.019534,0.070733,0.981244,-0.179327,0.026433,0.016864,-0.006222,-0.1830,-0.2440,-0.2440,-0.066961,0.087492,-0.041514,-0.993045
152668.858000,-0.974767,-0.147378,-0.167659,0.124287,-0.982207,0.140790,-0.185425,0.116399,0.975740,0.1187,0.1865,3.0148,0.081050,0.994140,-0.171870,-0.196704,-0.990575,-0.067012,-0.000637,0.021909,0.018668,0.116399,0.975740,-0.185425,-0.019253,0.021406,-0.000117,-0.0610,-0.1830,-0.3050,-0.068495,0.089023,-0.064845,-0.991554
152668.933000,-0.975534,-0.140984,-0.168690,0.126172,-0.987394,0.095569,-0.180037,0.071947,0.981025,0.0732,0.1810,3.0130,0.081050,0.994620,-0.172360,-0.190217,-0.988328,-0.112122,-0.000507,-0.024074,0.019180,0.071947,0.981025,-0.180037,0.025222,0.016601,-0.005996,-0.0610,-0.1830,-0.3050,-0.067262,0.087799,-0.042175,-0.992969
152669.008000,-0.974792,-0.146826,-0.167993,0.123957,-0.982448,0.139393,-0.185511,0.115056,0.975883,0.1174,0.1866,3.0151,0.081050,0.994140,-0.172360,-0.196018,-0.990670,-0.068857,-0.000439,0.020482,0.018791,0.115056,0.975883,-0.185511,-0.017896,0.021267,-0.000519,-0.0610,-0.1220,-0.3050,-0.068269,0.089124,-0.064151,-0.991605
152669.083000,-0.975274,-0.143988,-0.167656,0.127824,-0.986375,0.103560,-0.180283,0.079569,0.980391,0.0810,0.1813,3.0113,0.081540,0.994620,-0.172360,-0.193840,-0.988495,-0.104540,0.000115,-0.016798,0.019362,0.079569,0.980391,-0.180283,0.018093,0.017224,-0.005751,-0.1830,-0.1830,-0.1830,-0.068451,0.087622,-0.046117,-0.992729
152669.158000,-0.974126,-0.151616,-0.167602,0.128362,-0.981530,0.141852,-0.186014,0.116668,0.975596,0.1190,0.1871,3.0106,0.081050,0.994620,-0.172360,-0.200865,-0.990295,-0.067190,-0.000717,0.022261,0.019221,0.116668,0.975596,-0.186014,-0.019499,0.022030,-0.000019,-0.1220,-0.1830,-0.2440,-0.070604,0.089174,-0.065193,-0.991369
152669.233000,-0.975136,-0.144432,-0.168077,0.129678,-0.986924,0.095730,-0.179706,0.071554,0.981115,0.0728,0.1807,3.0094,0.081540,0.994140,-0.172360,-0.194128,-0.987067,-0.112623,-0.000296,-0.025044,0.018726,0.071554,0.981115,-0.179706,0.026099,0.016025,-0.006324,-0.1220,-0.1830,-0.2440,-0.069019,0.087570,-0.042121,-0.992871
152669.308000,-0.974948,-0.147616,-0.166392,0.125620,-0.982741,0.135794,-0.183566,0.111490,0.976665,0.1137,0.1846,3.0135,0.080560,0.994140,-0.171380,-0.196777,-0.990134,-0.071333,0.000235,0.017188,0.018629,0.111490,0.976665,-0.183566,-0.014850,0.020489,-0.001489,-0.1830,-0.0610,-0.3050,-0.068877,0.088216,-0.062334,-0.991760
152669.383000,-0.975023,-0.144715,-0.168487,0.128363,-0.986232,0.104255,-0.181254,0.080023,0.980175,0.0815,0.1823,3.0107,0.081050,0.994620,-0.172360,-0.193922,-0.988492,-0.104041,-0.000762,-0.015704,0.019343,0.080023,0.980175,-0.181254,0.017146,0.017451,-0.004779,-0.1830,-0.3050,-0.2440,-0.068775,0.088082,-0.046411,-0.992652
152669.458000,-0.974461,-0.150698,-0.166480,0.128267,-0.982066,0.138181,-0.184317,0.113298,0.976315,0.1155,0.1854,3.0107,0.081050,0.994620,-0.171870,-0.200254,-0.990136,-0.070050,0.000082,0.018639,0.019200,0.113298,0.976315,-0.184317,-0.016142,0.021307,-0.001228,-0.1830,-0.2440,-0.2440,-0.070334,0.088445,-0.063404,-0.991570
152669.533000,-0.974535,-0.147064,-0.169275,0.131442,-0.986255,0.100122,-0.181672,0.075322,0.980470,0.0767,0.1827,3.0075,0.080070,0.994620,-0.172850,-0.195045,-0.987730,-0.109104,-0.001254,-0.019505,0.019299,0.075322,0.980470,-0.181672,0.020875,0.017181,-0.004848,0.0610,-0.3660,-0.4880,-0.070143,0.088388,-0.044187,-0.992630
152669.609000,-0.973621,-0.153451,-0.168863,0.130705,-0.981701,0.138487,-0.187024,0.112763,0.975862,0.1150,0.1881,3.0081,0.079580,0.994140,-0.173330,-0.200763,-0.989551,-0.071927,-0.001013,0.019701,0.018885,0.112763,0.975862,-0.187024,-0.017055,0.021328,0.000029,0.3660,-0.4880,-0.8540,-0.071658,0.089747,-0.063360,-0.991361
152669.684000,-0.974242,-0.146431,-0.171495,0.132324,-0.987016,0.091045,-0.182600,0.066007,0.980969,0.0672,0.1836,3.0066,0.077140,0.993650,-0.174310,-0.190761,-0.986411,-0.119491,-0.001474,-0.026182,0.018277,0.066007,0.980969,-0.182600,0.027264,0.015798,-0.005366,0.3050,-0.4880,-0.7930,-0.070198,0.089170,-0.039550,-0.992752
152669.759000,-0.973995,-0.152400,-0.167654,0.129558,-0.981683,0.139690,-0.185872,0.114337,0.975899,0.1166,0.1870,3.0094,0.079580,0.993650,-0.173330,-0.199883,-0.989352,-0.070334,0.000443,0.021058,0.018381,0.114337,0.975899,-0.185872,-0.018638,0.020806,-0.001120,-0.2440,-0.2440,-0.0610,-0.071100,0.089147,-0.064057,-0.991410
152669.834000,-0.974044,-0.145915,-0.173050,0.131567,-0.987054,0.091730,-0.184195,0.066582,0.980632,0.0678,0.1853,3.0073,0.077630,0.994140,-0.175290,-0.190341,-0.987136,-0.120002,-0.002221,-0.025967,0.018982,0.066582,0.980632,-0.184195,0.027218,0.016617,-0.004749,0.1830,-0.4880,-0.6710,-0.069881,0.089969,-0.039870,-0.992690
152669.909000,-0.973317,-0.154231,-0.169900,0.131285,-0.981561,0.138933,-0.188195,0.112920,0.975619,0.1152,0.1893,3.0075,0.076660,0.994140,-0.174800,-0.198243,-0.990030,-0.072707,-0.000322,0.022712,0.018899,0.112920,0.975619,-0.188195,-0.020109,0.021649,-0.000261,0.0000,-0.6100,-0.6100,-0.072007,0.090312,-0.063517,-0.991274
152669.984000,-0.974244,-0.147288,-0.170746,0.133337,-0.986926,0.090543,-0.181850,0.065444,0.981146,0.0666,0.1829,3.0056,0.076660,0.994620,-0.174800,-0.191335,-0.987222,-0.120353,-0.000427,-0.026396,0.019278,0.065444,0.981146,-0.181850,0.027376,0.016597,-0.006609,-0.1830,-0.4880,-0.2440,-0.070668,0.088792,-0.039281,-0.992763
152670.059000,-0.973335,-0.154212,-0.169818,0.131405,-0.981640,0.138262,-0.188022,0.112261,0.975728,0.1145,0.1891,3.0074,0.076660,0.994620,-0.174800,-0.198314,-0.990453,-0.073314,-0.000315,0.022070,0.019380,0.112261,0.975728,-0.188022,-0.019440,0.022015,-0.000437,-0.2440,-0.4880,-0.1830,-0.072031,0.090245,-0.063180,-0.991300
152670.134000,-0.974190,-0.145619,-0.172481,0.131987,-0.987330,0.088089,-0.183123,0.063050,0.981066,0.0642,0.1842,3.0069,0.076660,0.994620,-0.175780,-0.189198,-0.987384,-0.123779,-0.001068,-0.028783,0.019403,0.063050,0.981066,-0.183123,0.029797,0.016684,-0.006312,-0.1830,-0.3660,-0.3660,-0.069905,0.089546,-0.038059,-0.992797
152670.209000,-0.973309,-0.154577,-0.169631,0.130995,-0.981101,0.142409,-0.188439,0.116387,0.975164,0.1188,0.1896,3.0078,0.076660,0.994620,-0.174800,-0.198707,-0.990674,-0.069143,-0.000167,0.026334,0.019279,0.116387,0.975164,-0.188439,-0.023567,0.022579,-0.000021,-0.3050,-0.2440,-0.1830,-0.072030,0.090316,-0.065276,-0.991158
152670.284000,-0.974454,-0.146524,-0.170207,0.133058,-0.987189,0.088057,-0.180929,0.063160,0.981466,0.0643,0.1819,3.0059,0.076660,0.994140,-0.174310,-0.190698,-0.986553,-0.122160,-0.000171,-0.028804,0.018650,0.063160,0.981466,-0.180929,0.029638,0.015797,-0.007040,-0.3660,-0.1830,-0.0610,-0.070398,0.088415,-0.038076,-0.992863
152670.359000,-0.973552,-0.153621,-0.169107,0.130454,-0.981443,0.140541,-0.187559,0.114763,0.975526,0.1171,0.1887,3.0084,0.077140,0.994140,-0.174310,-0.198344,-0.990126,-0.070422,0.000025,0.024084,0.018806,0.114763,0.975526,-0.187559,-0.021483,0.021727,-0.000410,-0.5490,-0.0610,0.1830,-0.071644,0.089951,-0.064388,-0.991277
152670.434000,-0.974914,-0.147633,-0.166572,0.132551,-0.986285,0.098351,-0.178807,0.073804,0.981112,0.0751,0.1798,3.0065,0.079100,0.994140,-0.172360,-0.195174,-0.986972,-0.109876,0.001204,-0.020476,0.018648,0.073804,0.981112,-0.178807,0.021394,0.016082,-0.007222,-0.6710,0.0000,0.3050,-0.070557,0.086974,-0.043353,-0.992763
152670.509000,-0.973437,-0.154251,-0.169193,0.131666,-0.981714,0.137485,-0.187306,0.111556,0.975947,0.1138,0.1884,3.0071,0.077630,0.995110,-0.173330,-0.199738,-0.990522,-0.072691,-0.001318,0.020565,0.019672,0.111556,0.975947,-0.187306,-0.017791,0.022249,0.000306,-0.1830,-0.2440,-0.2440,-0.072103,0.089902,-0.062804,-0.991350
152670.585000,-0.974937,-0.145890,-0.167969,0.132191,-0.987121,0.090099,-0.178950,0.065637,0.981666,0.0668,0.1799,3.0068,0.078610,0.995110,-0.172850,-0.192783,-0.987476,-0.118432,0.000366,-0.028240,0.019467,0.065637,0.981666,-0.178950,0.029101,0.016504,-0.007573,-0.1830,-0.1830,-0.2440,-0.070015,0.087346,-0.039211,-0.992941
152670.660000,-0.973874,-0.151945,-0.168767,0.128949,-0.981749,0.139790,-0.186927,0.114376,0.975693,0.1167,0.1880,3.0100,0.079100,0.994620,-0.173330,-0.198909,-0.990497,-0.070142,-0.000733,0.021856,0.019274,0.114376,0.975693,-0.186927,-0.019142,0.021984,-0.000071,-0.1830,-0.2440,-0.2440,-0.070834,0.089697,-0.064094,-0.991377
152670.735000,-0.975139,-0.144586,-0.167925,0.130608,-0.987198,0.091549,-0.179012,0.067341,0.981540,0.0685,0.1800,3.0084,0.078120,0.995110,-0.172360,-0.191113,-0.987947,-0.116151,0.000167,-0.025940,0.019399,0.067341,0.981540,-0.179012,0.026890,0.016638,-0.007023,-0.1830,-0.1830,-0.2440,-0.069286,0.087349,-0.040004,-0.992960
152670.810000,-0.974229,-0.149337,-0.169045,0.126950,-0.982497,0.136323,-0.186444,0.111349,0.976135,0.1136,0.1875,3.0120,0.078610,0.994620,-0.173330,-0.195817,-0.990860,-0.073100,-0.000624,0.019185,0.019292,0.111349,0.976135,-0.186444,-0.016608,0.021553,-0.000554,-0.2440,-0.1830,-0.1220,-0.069659,0.089628,-0.062444,-0.991572
152670.885000,-0.975051,-0.144862,-0.168197,0.129397,-0.986580,0.099580,-0.180365,0.075332,0.980711,0.0767,0.1814,3.0097,0.079100,0.994620,-0.172850,-0.192136,-0.988249,-0.108856,0.000267,-0.018730,0.019244,0.075332,0.980711,-0.180365,0.019889,0.016963,-0.006155,-0.1830,-0.2440,-0.1830,-0.069064,0.087775,-0.044047,-0.992767
152670.960000,-0.974137,-0.151270,-0.167852,0.129011,-0.982209,0.136461,-0.185508,0.111277,0.976322,0.1135,0.1866,3.0099,0.078120,0.994620,-0.172360,-0.197625,-0.990367,-0.072093,-0.000496,0.019600,0.019063,0.111277,0.976322,-0.185508,-0.017055,0.021370,-0.000524,-0.1220,-0.2440,-0.2440,-0.070668,0.089093,-0.062462,-0.991548
152671.035000,-0.974973,-0.142876,-0.170338,0.129236,-0.987639,0.088692,-0.180904,0.064459,0.981386,0.0656,0.1819,3.0098,0.077630,0.994620,-0.173330,-0.188269,-0.987666,-0.120035,-0.001026,-0.028274,0.019011,0.064459,0.981386,-0.180904,0.029297,0.016324,-0.006093,-0.1220,-0.2440,-0.2440,-0.068509,0.088432,-0.038559,-0.992975
152671.110000,-0.974322,-0.148484,-0.169259,0.125595,-0.982327,0.138776,-0.186874,0.113955,0.975752,0.1163,0.1880,3.0134,0.078120,0.994620,-0.173820,-0.194378,-0.991353,-0.070862,-0.000196,0.022314,0.019288,0.113955,0.975752,-0.186874,-0.019693,0.021950,-0.000611,-0.1830,-0.2440,-0.2440,-0.069106,0.089795,-0.063723,-0.991514
152671.185000,-0.975592,-0.139484,-0.169600,0.126492,-0.988303,0.085191,-0.179499,0.061658,0.981824,0.0627,0.1805,3.0127,0.077630,0.994620,-0.172850,-0.185154,-0.987891,-0.122316,-0.000320,-0.031244,0.018832,0.061658,0.981824,-0.179499,0.032084,0.015882,-0.007021,-0.1220,-0.1830,-0.2440,-0.066950,0.087873,-0.036964,-0.993192
152671.260000,-0.974091,-0.150714,-0.168620,0.126425,-0.981088,0.146571,-0.187522,0.121456,0.974723,0.1240,0.1886,3.0125,0.078120,0.994620,-0.172360,-0.196936,-0.991196,-0.061850,-0.001219,0.030274,0.018801,0.121456,0.974723,-0.187522,-0.027234,0.022969,0.001490,-0.1220,-0.2440,-0.2440,-0.069900,0.089826,-0.067602,-0.991199
152671.335000,-0.975099,-0.141200,-0.171010,0.128343,-0.988158,0.084093,-0.180858,0.060051,0.981674,0.0611,0.1819,3.0107,0.077140,0.994620,-0.173330,-0.186018,-0.987517,-0.124377,-0.001448,-0.032257,0.018857,0.060051,0.981674,-0.180858,0.033212,0.016047,-0.006139,0.1830,-0.3660,-0.5490,-0.067854,0.088579,-0.036287,-0.993093
152671.410000,-0.974454,-0.147016,-0.169783,0.124484,-0.982783,0.136533,-0.186932,0.111909,0.975978,0.1142,0.1880,3.0145,0.077630,0.995110,-0.173820,-0.192433,-0.992046,-0.072794,-0.000566,0.020784,0.019763,0.111909,0.975978,-0.186932,-0.018131,0.022222,-0.000556,0.1220,-0.3660,-0.4270,-0.068449,0.089933,-0.062636,-0.991617
152671.485000,-0.975517,-0.138072,-0.171182,0.124696,-0.988406,0.086627,-0.181158,0.063161,0.981424,0.0643,0.1822,3.0145,0.077140,0.994140,-0.173820,-0.182760,-0.988053,-0.121775,-0.000698,-0.029175,0.018578,0.063161,0.981424,-0.181158,0.030106,0.015825,-0.006323,-0.1220,-0.2440,-0.2440,-0.066145,0.088693,-0.037705,-0.993145
152671.561000,-0.974552,-0.146066,-0.170036,0.122683,-0.982411,0.140772,-0.187607,0.116329,0.975331,0.1187,0.1887,3.0164,0.077140,0.994140,-0.173820,-0.190832,-0.991660,-0.068357,-0.000481,0.025757,0.018671,0.116329,0.975331,-0.187607,-0.023062,0.021918,0.000126,-0.1830,-0.2440,-0.2440,-0.067763,0.090177,-0.064826,-0.991501
152671.636000,-0.975449,-0.138299,-0.171386,0.124707,-0.988307,0.087740,-0.181516,0.064213,0.981289,0.0653,0.1825,3.0144,0.077630,0.994140,-0.174310,-0.183339,-0.988128,-0.121303,-0.000528,-0.028619,0.018723,0.064213,0.981289,-0.181516,0.029560,0.015952,-0.006453,-0.2440,-0.2440,-0.1830,-0.066208,0.088838,-0.038252,-0.993107
152671.711000,-0.974353,-0.147701,-0.169767,0.124138,-0.982061,0.141939,-0.187686,0.117224,0.975209,0.1196,0.1888,3.0149,0.077140,0.994620,-0.173820,-0.192559,-0.991873,-0.067396,-0.000482,0.026739,0.019113,0.117224,0.975209,-0.187686,-0.023948,0.022516,0.000201,-0.3050,-0.1830,-0.1220,-0.068548,0.090137,-0.065352,-0.991416
152671.786000,-0.975269,-0.142082,-0.169299,0.127611,-0.987403,0.093545,-0.180457,0.069627,0.981115,0.0708,0.1815,3.0115,0.078120,0.994140,-0.173330,-0.188093,-0.987862,-0.114935,0.000151,-0.023629,0.018697,0.069627,0.981115,-0.180457,0.024612,0.016108,-0.006537,-0.2440,-0.1830,-0.1830,-0.067902,0.088060,-0.041083,-0.992949
152671.861000,-0.974416,-0.147330,-0.169729,0.125236,-0.982996,0.134292,-0.186628,0.109600,0.976298,0.1118,0.1877,3.0138,0.077140,0.994140,-0.173330,-0.192214,-0.990852,-0.074660,-0.000791,0.018836,0.018727,0.109600,0.976298,-0.186628,-0.016347,0.020947,-0.000366,0.0610,-0.2440,-0.3660,-0.068713,0.089837,-0.061485,-0.991679
152671.936000,-0.974657,-0.142677,-0.172301,0.127871,-0.987305,0.094225,-0.183557,0.069805,0.980527,0.0711,0.1846,3.0111,0.076170,0.994140,-0.174800,-0.185962,-0.988250,-0.115982,-0.001324,-0.021275,0.018895,0.069805,0.980527,-0.183557,0.022513,0.016751,-0.004899,0.2440,-0.3050,-0.6100,-0.068129,0.089611,-0.041306,-0.992785
152672.011000,-0.974121,-0.147786,-0.171022,0.125391,-0.982864,0.135111,-0.188059,0.110170,0.975959,0.1124,0.1892,3.0136,0.076660,0.994140,-0.175290,-0.191617,-0.991176,-0.075968,-0.000220,0.019817,0.019055,0.110170,0.975959,-0.188059,-0.017345,0.021312,-0.000885,0.0000,-0.1830,-0.3660,-0.068874,0.090532,-0.061841,-0.991583
152672.086000,-0.975335,-0.140509,-0.170230,0.126491,-0.987820,0.090619,-0.180889,0.066851,0.981229,0.0680,0.1819,3.0126,0.077140,0.994620,-0.174310,-0.185317,-0.988544,-0.118500,0.000385,-0.025517,0.019239,0.066851,0.981229,-0.180889,0.026438,0.016500,-0.007083,-0.3050,-0.0610,0.0000,-0.067219,0.088396,-0.039644,-0.993024
152672.161000,-0.974511,-0.146904,-0.169553,0.124451,-0.982826,0.136250,-0.186656,0.111676,0.976057,0.1139,0.1878,3.0146,0.077140,0.994620,-0.173820,-0.191815,-0.991622,-0.072982,-0.000164,0.020933,0.019248,0.111676,0.976057,-0.186656,-0.018400,0.021668,-0.000828,-0.3660,-0.0610,0.0610,-0.068411,0.089803,-0.062504,-0.991639
152672.236000,-0.975249,-0.139175,-0.171813,0.125485,-0.988170,0.088171,-0.182052,0.064429,0.981176,0.0656,0.1831,3.0136,0.076170,0.993650,-0.174310,-0.182627,-0.987706,-0.120876,-0.000794,-0.026902,0.018191,0.064429,0.981176,-0.182052,0.027867,0.015613,-0.005913,-0.2440,-0.1830,-0.1220,-0.066628,0.089085,-0.038417,-0.993050
152672.311000,-0.974653,-0.146393,-0.169178,0.123351,-0.982503,0.139546,-0.186646,0.115140,0.975657,0.1175,0.1877,3.0157,0.078120,0.994620,-0.173820,-0.192339,-0.991837,-0.069648,0.000144,0.023486,0.019262,0.115140,0.975657,-0.186646,-0.020879,0.022046,-0.000839,-0.3660,-0.1830,0.0000,-0.068010,0.089713,-0.064213,-0.991566
152672.386000,-0.975626,-0.139219,-0.169620,0.125227,-0.987981,0.090623,-0.180198,0.067173,0.981334,0.0683,0.1812,3.0139,0.078120,0.994140,-0.172850,-0.185301,-0.988073,-0.116921,-0.000296,-0.026080,0.018545,0.067173,0.981334,-0.180198,0.027053,0.015886,-0.006319,-0.1220,-0.1830,-0.2440,-0.066571,0.088063,-0.039723,-0.993094
152672.461000,-0.974028,-0.147646,-0.171669,0.124326,-0.982386,0.139504,-0.189243,0.114538,0.975227,0.1169,0.1904,3.0146,0.076660,0.994140,-0.174310,-0.191526,-0.991415,-0.070632,-0.001814,0.024590,0.018759,0.114538,0.975227,-0.189243,-0.021741,0.022036,0.001274,0.3050,-0.2440,-0.6710,-0.068581,0.091009,-0.064060,-0.991418
152672.536000,-0.974905,-0.138278,-0.174467,0.124927,-0.988486,0.085370,-0.184263,0.061432,0.980955,0.0625,0.1853,3.0141,0.076170,0.994140,-0.176260,-0.180975,-0.988225,-0.125866,-0.001622,-0.029881,0.018963,0.061432,0.980955,-0.184263,0.030926,0.016334,-0.005646,0.3660,-0.0610,-0.9760,-0.066264,0.090313,-0.036959,-0.993019
152672.612000,-0.974434,-0.145322,-0.171348,0.122196,-0.982781,0.138598,-0.188539,0.114117,0.975413,0.1165,0.1897,3.0168,0.075680,0.994140,-0.175290,-0.188181,-0.992069,-0.071801,-0.000117,0.024877,0.018876,0.114117,0.975413,-0.188539,-0.022278,0.021880,-0.000405,0.0000,0.0610,-0.6100,-0.067450,0.090739,-0.063718,-0.991543
152672.687000,-0.975098,-0.137869,-0.173713,0.124282,-0.988438,0.086853,-0.183679,0.063101,0.980959,0.0642,0.1847,3.0148,0.075680,0.994620,-0.176260,-0.180304,-0.989024,-0.124043,-0.000811,-0.027755,0.019457,0.063101,0.980959,-0.183679,0.028773,0.016817,-0.006232,-0.2440,-0.0610,-0.1830,-0.065997,0.089975,-0.037751,-0.993038
152672.762000,-0.974134,-0.147286,-0.171377,0.123833,-0.982327,0.140351,-0.189020,0.115498,0.975157,0.1179,0.1902,3.0151,0.075190,0.994620,-0.175290,-0.189698,-0.992333,-0.070271,-0.000393,0.026901,0.019258,0.115498,0.975157,-0.189020,-0.024143,0.022623,0.000074,-0.2440,-0.1220,-0.1830,-0.068367,0.090880,-0.064516,-0.991415
152672.837000,-0.974894,-0.140262,-0.172939,0.126580,-0.988062,0.087811,-0.183191,0.063716,0.981010,0.0649,0.1842,3.0125,0.075190,0.994140,-0.175780,-0.182343,-0.988190,-0.122873,-0.000613,-0.026672,0.018892,0.063716,0.981010,-0.183191,0.027643,0.016297,-0.006240,-0.1830,-0.1830,-0.2440,-0.067183,0.089663,-0.038150,-0.992971
152672.912000,-0.974429,-0.147306,-0.169673,0.124884,-0.982800,0.136042,-0.186794,0.111374,0.976065,0.1136,0.1879,3.0141,0.076170,0.995600,-0.174310,-0.191305,-0.992677,-0.073482,0.000114,0.021648,0.020214,0.111374,0.976065,-0.186794,-0.019041,0.022656,-0.001184,-0.2440,-0.1830,-0.2440,-0.068622,0.089869,-0.062376,-0.991627
152672.987000,-0.976811,-0.139743,-0.162208,0.123853,-0.986804,0.104298,-0.174643,0.081790,0.981229,0.0832,0.1755,3.0155,0.086420,0.995110,-0.169430,-0.195992,-0.988947,-0.099952,0.002675,-0.019741,0.019600,0.081790,0.981229,-0.174643,0.020710,0.016740,-0.008481,-0.3660,0.0610,-0.3050,-0.066358,0.084799,-0.046846,-0.993082
152673.062000,-0.972010,-0.145574,-0.184402,0.125964,-0.985464,0.113989,-0.198315,0.087570,0.976218,0.0895,0.1996,3.0127,0.065420,0.993160,-0.179680,-0.175034,-0.990964,-0.101410,-0.007763,0.008817,0.018367,0.087570,0.976218,-0.198315,-0.005950,0.020367,0.005014,-0.2440,0.0610,-0.4270,-0.068454,0.096482,-0.050813,-0.991677
152673.137000,-0.975786,-0.144931,-0.163817,0.126956,-0.985175,0.115376,-0.178110,0.091785,0.979721,0.0934,0.1791,3.0122,0.074700,0.994620,-0.174800,-0.188407,-0.990559,-0.093269,0.007274,0.001693,0.019457,0.091785,0.979721,-0.178110,-0.000936,0.018066,-0.010349,-0.0610,-0.2440,-0.3660,-0.068481,0.086123,-0.052178,-0.992558
152673.212000,-0.973590,-0.144956,-0.176382,0.127184,-0.985954,0.108257,-0.189597,0.082965,0.978351,0.0846,0.1908,3.0117,0.073730,0.994140,-0.175290,-0.184971,-0.989775,-0.102995,-0.004988,-0.004676,0.019025,0.082965,0.978351,-0.189597,0.006912,0.018986,0.000654,-0.0610,-0.3050,-0.3660,-0.068569,0.092213,-0.048181,-0.992206
152673.287000,-0.974732,-0.145546,-0.169451,0.126424,-0.984850,0.118687,-0.184159,0.094265,0.978366,0.0961,0.1852,3.0126,0.074700,0.994620,-0.175780,-0.187789,-0.990971,-0.091976,0.002343,0.004977,0.019660,0.094265,0.978366,-0.184159,-0.003390,0.019429,-0.005275,-0.0610,-0.3050,-0.3660,-0.068526,0.089096,-0.053656,-0.992213
152673.362000,-0.974090,-0.145615,-0.173044,0.127604,-0.985588,0.111061,-0.186722,0.086102,0.978632,0.0878,0.1878,3.0113,0.075190,0.994140,-0.175780,-0.187586,-0.989740,-0.100466,-0.001359,-0.003453,0.019235,0.086102,0.978632,-0.186722,0.005257,0.018675,-0.002709,-0.2440,-0.1830,-0.2440,-0.068838,0.090643,-0.049675,-0.992259
152673.437000,-0.974161,-0.148067,-0.170548,0.128746,-0.984474,0.119310,-0.185566,0.094270,0.978099,0.0961,0.1866,3.0102,0.073730,0.994140,-0.175290,-0.189128,-0.990127,-0.091416,0.000658,0.006185,0.019028,0.094270,0.978099,-0.185566,-0.004392,0.019237,-0.003376,-0.1830,-0.1830,-0.1830,-0.069757,0.089741,-0.053822,-0.992060
152673.512000,-0.974318,-0.143951,-0.173155,0.127926,-0.986684,0.100450,-0.185310,0.075720,0.979759,0.0771,0.1864,3.0110,0.074210,0.994140,-0.175780,-0.184974,-0.989066,-0.110698,-0.001137,-0.013221,0.019089,0.075720,0.979759,-0.185310,0.014654,0.017571,-0.004121,0.0000,-0.3660,-0.4880,-0.068478,0.090287,-0.044372,-0.992567
152673.588000,-0.974525,-0.145509,-0.170667,0.125512,-0.984479,0.122672,-0.185868,0.098127,0.977663,0.1000,0.1870,3.0135,0.074210,0.994620,-0.175290,-0.187130,-0.991371,-0.087569,0.000691,0.009721,0.019500,0.098127,0.977663,-0.185868,-0.007757,0.020139,-0.003078,-0.1830,-0.2440,-0.1830,-0.068298,0.089848,-0.055642,-0.992052
152673.663000,-0.974873,-0.142158,-0.171507,0.126135,-0.986857,0.101012,-0.183612,0.076841,0.979991,0.0782,0.1847,3.0129,0.074700,0.994140,-0.174800,-0.184169,-0.989309,-0.108628,-0.000239,-0.012676,0.018939,0.076841,0.979991,-0.183612,0.013998,0.017320,-0.004843,-0.2440,-0.1830,-0.0610,-0.067567,0.089434,-0.044791,-0.992688
152673.738000,-0.974041,-0.147497,-0.171723,0.126239,-0.983604,0.128794,-0.187904,0.103772,0.976690,0.1059,0.1890,3.0127,0.074700,0.993650,-0.175290,-0.189220,-0.990504,-0.082127,-0.000543,0.015180,0.018523,0.103772,0.976690,-0.187904,-0.012929,0.020139,-0.001036,-0.1220,-0.3050,-0.3050,-0.069003,0.090654,-0.058625,-0.991758
152673.813000,-0.974769,-0.142483,-0.171826,0.127563,-0.987270,0.095005,-0.183175,0.070689,0.980536,0.0720,0.1842,3.0115,0.074210,0.994620,-0.175290,-0.183934,-0.989145,-0.115163,-0.000145,-0.018525,0.019378,0.070689,0.980536,-0.183175,0.019680,0.017266,-0.005771,-0.1220,-0.3050,-0.3660,-0.068001,0.089394,-0.041724,-0.992796
152673.888000,-0.974101,-0.147522,-0.171361,0.126109,-0.983487,0.129804,-0.187680,0.104832,0.976620,0.1069,0.1888,3.0128,0.074210,0.994620,-0.175290,-0.188978,-0.991591,-0.080851,-0.000263,0.016814,0.019408,0.104832,0.976620,-0.187680,-0.014463,0.021182,-0.001266,-0.1830,-0.2440,-0.1830,-0.068977,0.090508,-0.059148,-0.991742
152673.963000,-0.974672,-0.143407,-0.171606,0.128401,-0.987102,0.095616,-0.183105,0.071160,0.980515,0.0724,0.1841,3.0106,0.074210,0.994620,-0.175290,-0.184885,-0.989023,-0.114686,-0.000028,-0.018059,0.019387,0.071160,0.980515,-0.183105,0.019209,0.017287,-0.005841,-0.2440,-0.1830,-0.1220,-0.068448,0.089325,-0.041998,-0.992760
152674.038000,-0.973984,-0.150026,-0.169843,0.127879,-0.982611,0.134623,-0.187087,0.109402,0.976232,0.1116,0.1882,3.0110,0.075190,0.994620,-0.174310,-0.192848,-0.991175,-0.075421,-0.000085,0.020546,0.019216,0.109402,0.976232,-0.187087,-0.018074,0.021540,-0.000884,-0.1830,-0.1830,-0.3050,-0.070067,0.089991,-0.061525,-0.991568
152674.113000,-0.973975,-0.145979,-0.173384,0.131675,-0.987072,0.091380,-0.184482,0.066171,0.980606,0.0674,0.1855,3.0072,0.071770,0.993160,-0.175780,-0.184405,-0.986933,-0.119893,-0.001100,-0.020654,0.017850,0.066171,0.980606,-0.184482,0.021729,0.015807,-0.004941,-0.3050,-0.1220,-0.1830,-0.069925,0.090126,-0.039678,-0.992680
152674.188000,-0.973816,-0.153376,-0.167806,0.130256,-0.981390,0.141092,-0.186323,0.115540,0.975671,0.1179,0.1874,3.0086,0.077630,0.994140,-0.173820,-0.198907,-0.990052,-0.069192,0.000850,0.024267,0.018741,0.115540,0.975671,-0.186323,-0.021780,0.021567,-0.001158,-0.3660,-0.1830,0.0000,-0.071529,0.089307,-0.064720,-0.991322
152674.263000,-0.974492,-0.144075,-0.172071,0.131400,-0.987851,0.082972,-0.181935,0.058245,0.981584,0.0593,0.1830,3.0076,0.075190,0.994140,-0.174310,-0.186509,-0.986645,-0.126876,-0.001590,-0.032161,0.018447,0.058245,0.981584,-0.181935,0.033074,0.015712,-0.006033,-0.1830,-0.1830,-0.1830,-0.069357,0.089128,-0.035554,-0.992966
152674.338000,-0.973813,-0.152496,-0.168620,0.128904,-0.981290,0.143015,-0.187274,0.117534,0.975251,0.1199,0.1884,3.0100,0.078120,0.995110,-0.173820,-0.198515,-0.991281,-0.067189,-0.000112,0.026080,0.019676,0.117534,0.975251,-0.187274,-0.023263,0.022938,-0.000214,-0.3050,-0.1220,-0.1830,-0.070970,0.089758,-0.065712,-0.991256
152674.413000,-0.974444,-0.144495,-0.171989,0.131833,-0.987795,0.082956,-0.181877,0.058162,0.981600,0.0592,0.1829,3.0071,0.071770,0.993650,-0.174310,-0.183534,-0.986521,-0.126363,-0.000991,-0.028879,0.017841,0.058162,0.981600,-0.181877,0.029708,0.015288,-0.006087,-0.3660,-0.0610,-0.1220,-0.069572,0.089094,-0.035530,-0.992955
152674.488000,-0.972308,-0.152797,-0.176835,0.129227,-0.981973,0.137950,-0.194726,0.111278,0.974525,0.1137,0.1960,3.0095,0.075680,1.011710,-0.183590,-0.195706,-1.009018,-0.081069,-0.001715,0.023752,0.037626,0.111278,0.974525,-0.194726,-0.018874,0.040247,-0.002590,-0.1830,-0.1830,-0.3050,-0.071142,0.093728,-0.062869,-0.991061
152674.564000,-0.980079,-0.142047,-0.138811,0.130173,-0.987287,0.091212,-0.150003,0.071326,0.986109,0.0722,0.1506,3.0095,0.079100,0.960930,-0.149900,-0.193214,-0.952090,-0.091144,0.013036,-0.026091,-0.018067,0.071326,0.986109,-0.150003,0.022619,-0.022005,-0.013463,-1.4030,-0.3660,-1.2810,-0.068454,0.072627,-0.040873,-0.994167
152674.639000,-0.971251,-0.148196,-0.186305,0.126334,-0.984175,0.124252,-0.201771,0.097143,0.974603,0.0993,0.2032,3.0122,0.071280,1.011710,-0.184570,-0.184776,-1.009628,-0.095984,-0.009530,0.014438,0.037662,0.097143,0.974603,-0.201771,-0.009138,0.040275,0.003481,1.0370,1.7080,-0.0610,-0.069241,0.097879,-0.055839,-0.991215
152674.714000,-0.975788,-0.140868,-0.167312,0.126513,-0.987538,0.093616,-0.178415,0.070183,0.981449,0.0714,0.1794,3.0127,0.070310,0.994140,-0.177240,-0.178996,-0.989448,-0.116725,0.007194,-0.016186,0.019051,0.070183,0.981449,-0.178415,0.016308,0.015979,-0.012467,-0.1220,1.4030,-0.6100,-0.067311,0.087035,-0.041235,-0.993073
152674.789000,-0.974180,-0.146865,-0.171476,0.124756,-0.983189,0.133321,-0.188173,0.108486,0.976126,0.1107,0.1893,3.0142,0.074210,0.994620,-0.173820,-0.188563,-0.991816,-0.075732,-0.001720,0.020827,0.019048,0.108486,0.976126,-0.188173,-0.018158,0.021665,0.000690,-0.2440,0.0000,-0.1830,-0.068477,0.090669,-0.060961,-0.991652
152674.864000,-0.975455,-0.139573,-0.170314,0.126342,-0.988230,0.086247,-0.180347,0.062612,0.981608,0.0637,0.1813,3.0128,0.073730,0.995110,-0.173820,-0.181207,-0.989074,-0.121614,0.000321,-0.026386,0.019365,0.062612,0.981608,-0.180347,0.027243,0.016679,-0.007139,-0.1830,-0.2440,-0.1830,-0.066938,0.088271,-0.037472,-0.993138
152674.939000,-0.974978,-0.143734,-0.169581,0.122146,-0.983755,0.131555,-0.185735,0.107550,0.976696,0.1097,0.1868,3.0170,0.076170,0.995110,-0.173330,-0.187902,-0.992443,-0.076415,-0.000226,0.017684,0.019625,0.107550,0.976696,-0.185735,-0.015253,0.021532,-0.001265,-0.1220,-0.1830,-0.3050,-0.067013,0.089555,-0.060264,-0.991896
152675.014000,-0.975495,-0.134911,-0.173805,0.121875,-0.989013,0.083659,-0.183182,0.060426,0.981220,0.0615,0.1842,3.0173,0.072750,0.994140,-0.174800,-0.174707,-0.988975,-0.124772,-0.001499,-0.027432,0.018517,0.060426,0.981220,-0.183182,0.028452,0.016135,-0.005273,-0.1220,0.1830,-0.3050,-0.064637,0.089858,-0.036268,-0.993193
152675.089000,-0.975210,-0.143098,-0.168788,0.120299,-0.983047,0.138370,-0.185727,0.114635,0.975892,0.1169,0.1868,3.0189,0.075680,0.995110,-0.172850,-0.187027,-0.993053,-0.068664,0.000273,0.025453,0.019335,0.114635,0.975892,-0.185727,-0.022844,0.022344,-0.000795,-0.1830,-0.2440,-0.1220,-0.066398,0.089367,-0.063778,-0.991734
152675.164000,-0.975665,-0.134581,-0.173106,0.121475,-0.989013,0.084246,-0.182542,0.061168,0.981294,0.0623,0.1836,3.0177,0.072750,0.995110,-0.174310,-0.174728,-0.990024,-0.123461,-0.001377,-0.026637,0.019388,0.061168,0.981294,-0.182542,0.027716,0.017019,-0.005432,-0.1220,0.3660,-0.4270,-0.064451,0.089518,-0.036601,-0.993223
152675.239000,-0.974991,-0.142295,-0.170717,0.119825,-0.983515,0.135429,-0.187173,0.111586,0.975969,0.1138,0.1883,3.0193,0.073240,0.993650,-0.173820,-0.183125,-0.992033,-0.072474,-0.000103,0.024676,0.017954,0.111586,0.975969,-0.187173,-0.022252,0.020882,-0.000303,-0.2440,0.0610,-0.1830,-0.066073,0.090215,-0.062266,-0.991775
152675.314000,-0.976657,-0.135460,-0.166707,0.120810,-0.988107,0.095129,-0.177611,0.072769,0.981407,0.0740,0.1786,3.0185,0.080560,0.994140,-0.171380,-0.184775,-0.988887,-0.110160,0.001412,-0.022989,0.018513,0.072769,0.981407,-0.177611,0.023872,0.015747,-0.007444,-0.2440,-0.2440,-0.1220,-0.064503,0.086665,-0.042260,-0.993249
152675.389000,-0.974922,-0.137627,-0.174887,0.118301,-0.986115,0.116542,-0.188498,0.092930,0.977667,0.0948,0.1896,3.0208,0.070310,0.994620,-0.174800,-0.174863,-0.992864,-0.091720,-0.002682,0.008768,0.019156,0.092930,0.977667,-0.188498,-0.006497,0.020219,0.000041,-0.1220,0.0610,-0.3050,-0.064478,0.091550,-0.052774,-0.992308
152675.464000,-0.976627,-0.133713,-0.168286,0.117521,-0.987736,0.102794,-0.179967,0.080615,0.980364,0.0820,0.1810,3.0218,0.075190,0.995110,-0.173330,-0.177323,-0.991887,-0.103238,0.002428,-0.009553,0.019663,0.080615,0.980364,-0.179967,0.010696,0.017887,-0.007033,-0.1830,-0.1830,-0.1830,-0.063247,0.087671,-0.046172,-0.993067
152675.539000,-0.975212,-0.138680,-0.172421,0.118197,-0.985229,0.123906,-0.187058,0.100455,0.977199,0.1024,0.1882,3.0210,0.073730,0.995110,-0.173820,-0.179934,-0.993234,-0.083685,-0.001748,0.013005,0.019623,0.100455,0.977199,-0.187058,-0.010599,0.021088,-0.000429,-0.1830,-0.2440,-0.2440,-0.064726,0.090579,-0.056532,-0.992174
152675.615000,-0.976070,-0.136174,-0.169542,0.120433,-0.987677,0.099949,-0.181063,0.077139,0.980442,0.0785,0.1821,3.0188,0.074210,0.994620,-0.173330,-0.178489,-0.990750,-0.106652,0.001056,-0.011995,0.019097,0.077139,0.980442,-0.181063,0.013176,0.017345,-0.005933,-0.1830,-0.1830,-0.1830,-0.064604,0.088269,-0.044584,-0.992999
152675.690000,-0.975105,-0.141501,-0.170726,0.120554,-0.984495,0.127423,-0.186110,0.103669,0.977044,0.1057,0.1872,3.0186,0.074210,0.994620,-0.173330,-0.183510,-0.992338,-0.080051,-0.000788,0.015683,0.019047,0.103669,0.977044,-0.186110,-0.013354,0.020742,-0.000886,-0.1830,-0.2440,-0.2440,-0.066039,0.089924,-0.058236,-0.992049
152675.765000,-0.975564,-0.139233,-0.169968,0.123619,-0.987351,0.099275,-0.181640,0.075838,0.980436,0.0772,0.1827,3.0155,0.074700,0.994140,-0.173330,-0.181831,-0.989538,-0.108114,0.000273,-0.013760,0.018641,0.075838,0.980436,-0.181640,0.014962,0.016864,-0.005353,-0.1830,-0.1830,-0.2440,-0.066183,0.088531,-0.044091,-0.992894
152675.840000,-0.975124,-0.145258,-0.167433,0.123172,-0.983086,0.135536,-0.184289,0.111541,0.976522,0.1137,0.1853,3.0159,0.078610,0.994140,-0.171870,-0.192285,-0.990937,-0.071434,0.000206,0.019213,0.018545,0.111541,0.976522,-0.184289,-0.016849,0.020679,-0.001252,-0.1830,-0.1830,-0.2440,-0.067662,0.088657,-0.062279,-0.991808
152675.915000,-0.974449,-0.141255,-0.174631,0.127254,-0.987870,0.088986,-0.185082,0.064490,0.980605,0.0657,0.1862,3.0117,0.070310,0.994140,-0.175290,-0.178330,-0.988733,-0.120791,-0.002275,-0.020676,0.018612,0.064490,0.980605,-0.185082,0.021947,0.016809,-0.003859,-0.1220,0.0000,-0.2440,-0.067611,0.090577,-0.038646,-0.992840
152675.990000,-0.975896,-0.145453,-0.162698,0.123139,-0.982501,0.139746,-0.180178,0.116343,0.976729,0.1186,0.1812,3.0161,0.082030,0.996090,-0.169920,-0.197291,-0.992304,-0.064857,0.002376,0.020603,0.020293,0.116343,0.976729,-0.180178,-0.018227,0.022313,-0.003438,-0.1830,0.0610,-0.3050,-0.067699,0.086423,-0.064548,-0.991858
152676.065000,-0.975039,-0.139407,-0.172813,0.125832,-0.988211,0.087213,-0.182934,0.063291,0.981086,0.0644,0.1840,3.0132,0.074210,0.994620,-0.172850,-0.181143,-0.988631,-0.120206,-0.003156,-0.025688,0.018747,0.063291,0.981086,-0.182934,0.027011,0.016697,-0.003584,-0.3050,0.9150,-0.4880,-0.066776,0.089562,-0.037891,-0.993018
152676.140000,-0.974073,-0.146479,-0.172412,0.124797,-0.983556,0.130550,-0.188700,0.105649,0.976335,0.1078,0.1898,3.0142,0.068840,0.994140,-0.175290,-0.182454,-0.992085,-0.079102,-0.000375,0.023076,0.018471,0.105649,0.976335,-0.188700,-0.020691,0.021111,-0.000241,-0.3660,0.9760,-0.4880,-0.068386,0.091033,-0.059543,-0.991711
152676.215000,-0.979606,-0.137809,-0.146223,0.120592,-0.985332,0.120741,-0.160717,0.100645,0.981856,0.1021,0.1614,3.0191,0.094230,0.997550,-0.160640,-0.206290,-0.990950,-0.072471,0.009415,-0.008818,0.021114,0.100645,0.981856,-0.160717,0.009516,0.018290,-0.013679,-0.4270,1.4030,-0.5490,-0.065034,0.077250,-0.055718,-0.993327
152676.290000,-0.980572,-0.130003,-0.146892,0.108969,-0.983682,0.143162,-0.163107,0.124374,0.978738,0.1264,0.1638,3.0309,0.104000,0.993650,-0.152340,-0.208780,-0.987912,-0.042479,0.001026,0.006754,0.016801,0.124374,0.978738,-0.163107,-0.004688,0.017260,-0.003010,-0.7320,5.4320,-0.9760,-0.060173,0.078058,-0.067366,-0.992848
152676.365000,-0.974300,-0.116081,-0.193039,0.104635,-0.992149,0.068500,-0.199475,0.046541,0.978797,0.0475,0.2008,3.0346,0.027830,0.982420,-0.197750,-0.102981,-0.985341,-0.153386,0.010135,0.001754,0.010175,0.046541,0.978797,-0.199475,-0.002443,0.008123,-0.011721,-0.1830,9.5210,-1.0980,-0.055561,0.098807,-0.028959,-0.993132
152676.440000,-0.977414,-0.121102,-0.173192,0.098513,-0.986130,0.133574,-0.186966,0.113495,0.975788,0.1158,0.1881,3.0411,0.074210,1.006340,-0.176750,-0.163792,-1.008681,-0.072130,0.000371,0.026692,0.030889,0.113495,0.975788,-0.186966,-0.022861,0.033642,-0.003509,0.9150,2.6240,0.0610,-0.055325,0.090730,-0.062241,-0.992388
152676.515000,-0.978663,-0.114077,-0.170897,0.100676,-0.991268,0.085155,-0.179119,0.066133,0.981602,0.0673,0.1801,3.0391,0.077140,0.994140,-0.171870,-0.159530,-0.992329,-0.116780,0.000524,-0.026160,0.018286,0.066133,0.981602,-0.179119,0.027081,0.015632,-0.006422,0.0000,-0.3660,-0.0610,-0.054016,0.088039,-0.038053,-0.993923
152676.591000,-0.977482,-0.123136,-0.171369,0.100428,-0.985685,0.135420,-0.185591,0.115160,0.975856,0.1175,0.1867,3.0392,0.076170,0.995110,-0.171870,-0.167535,-0.996490,-0.067260,-0.001055,0.025609,0.019176,0.115160,0.975856,-0.185591,-0.022904,0.022362,0.000044,-0.0610,-0.3660,-0.1220,-0.056322,0.089928,-0.063128,-0.992349
152676.666000,-0.978632,-0.115172,-0.170340,0.101757,-0.991127,0.085521,-0.178678,0.066360,0.981667,0.0675,0.1796,3.0380,0.078610,0.995110,-0.171380,-0.162346,-0.992937,-0.116248,0.000174,-0.027325,0.019210,0.066360,0.981667,-0.178678,0.028337,0.016492,-0.006383,-0.1830,-0.3050,-0.0610,-0.054564,0.087789,-0.038203,-0.993910
152676.741000,-0.977777,-0.122132,-0.170400,0.099602,-0.985821,0.135045,-0.184477,0.115072,0.976077,0.1174,0.1855,3.0401,0.078610,0.994620,-0.171380,-0.169134,-0.995831,-0.067329,-0.000624,0.022953,0.018841,0.115072,0.976077,-0.184477,-0.020384,0.021596,-0.000580,-0.1830,-0.1220,-0.2440,-0.055856,0.089396,-0.063006,-0.992431
152676.816000,-0.978172,-0.115300,-0.172873,0.101442,-0.991031,0.086988,-0.181352,0.067553,0.981095,0.0687,0.1824,3.0383,0.078610,0.995110,-0.172850,-0.161749,-0.993246,-0.116616,-0.001028,-0.025980,0.019526,0.067553,0.981095,-0.181352,0.027185,0.017075,-0.005171,-0.0610,-0.3050,-0.2440,-0.054525,0.089112,-0.038878,-0.993768
152676.891000,-0.977938,-0.122270,-0.169375,0.099975,-0.985865,0.134447,-0.183419,0.114547,0.976338,0.1168,0.1845,3.0397,0.077630,0.995600,-0.171380,-0.168622,-0.996807,-0.067520,0.000372,0.023370,0.019716,0.114547,0.976338,-0.183419,-0.020827,0.022329,-0.001644,-0.3050,0.0000,-0.2440,-0.055982,0.088866,-0.062720,-0.992489
152676.966000,-0.978345,-0.116710,-0.170939,0.102389,-0.990633,0.090352,-0.179883,0.070893,0.981130,0.0721,0.1809,3.0373,0.078120,0.995110,-0.171380,-0.163272,-0.993274,-0.111652,-0.000568,-0.022083,0.019302,0.070893,0.981130,-0.179883,0.023311,0.017040,-0.005177,-0.1830,-0.2440,-0.2440,-0.055120,0.088258,-0.040565,-0.993744
152677.041000,-0.977455,-0.124272,-0.170698,0.101601,-0.985528,0.135693,-0.185090,0.115291,0.975935,0.1176,0.1862,3.0380,0.077630,0.994620,-0.171870,-0.170145,-0.995660,-0.067432,-0.000590,0.024170,0.018837,0.115291,0.975935,-0.185090,-0.021575,0.021764,-0.000454,-0.1830,-0.2440,-0.1830,-0.056904,0.089634,-0.063231,-0.992335
152677.116000,-0.978368,-0.118123,-0.169831,0.104335,-0.990644,0.087968,-0.178633,0.068346,0.981539,0.0695,0.1796,3.0354,0.078610,0.995600,-0.171380,-0.165407,-0.993159,-0.114214,0.000273,-0.025281,0.019740,0.068346,0.981539,-0.178633,0.026361,0.017105,-0.006431,-0.1830,-0.1830,-0.1830,-0.055962,0.087659,-0.039322,-0.993800
152677.191000,-0.977484,-0.124569,-0.170314,0.102704,-0.985957,0.131686,-0.184326,0.111229,0.976551,0.1134,0.1854,3.0369,0.077140,0.994620,-0.171380,-0.170113,-0.995298,-0.070949,-0.000644,0.020478,0.018789,0.111229,0.976551,-0.184326,-0.018020,0.021155,-0.000731,-0.1830,-0.2440,-0.1830,-0.057249,0.089332,-0.061190,-0.992471
152677.266000,-0.977327,-0.118372,-0.175555,0.101403,-0.989531,0.102696,-0.185873,0.082566,0.979099,0.0841,0.1870,3.0382,0.087400,0.992180,-0.175780,-0.172006,-0.990982,-0.106431,-0.001829,-0.019535,0.018054,0.082566,0.979099,-0.185873,0.021038,0.015992,-0.003550,-0.2440,-0.1220,-0.1830,-0.055319,0.090974,-0.046632,-0.993222
152677.341000,-0.979416,-0.118796,-0.163190,0.102113,-0.988991,0.107092,-0.174116,0.088224,0.980765,0.0897,0.1750,3.0377,0.068840,0.996090,-0.166990,-0.158503,-0.995978,-0.087885,0.003827,0.004733,0.019035,0.088224,0.980765,-0.174116,-0.003456,0.018551,-0.006580,0.0000,0.7320,-0.5490,-0.055582,0.084867,-0.049142,-0.993626
152677.416000,-0.976117,-0.121390,-0.180167,0.101300,-0.987972,0.116834,-0.192182,0.095793,0.976673,0.0978,0.1934,3.0382,0.078610,1.005850,-0.178710,-0.166635,-1.006668,-0.093296,-0.005480,0.004416,0.031417,0.095793,0.976673,-0.192182,-0.000688,0.032188,-0.000242,0.0000,-0.0610,-0.2440,-0.056089,0.093784,-0.053555,-0.992568
152677.491000,-0.980887,-0.120744,-0.152583,0.104363,-0.988306,0.111177,-0.164223,0.093128,0.982017,0.0946,0.1650,3.0356,0.077140,0.979000,-0.160150,-0.169438,-0.977306,-0.078766,0.009421,-0.000464,0.001639,0.093128,0.982017,-0.164223,-0.000527,0.000121,-0.009558,-1.2200,-0.3660,-1.0370,-0.056623,0.079689,-0.051391,-0.993883
152677.567000,-0.976532,-0.121666,-0.177714,0.103949,-0.988935,0.105842,-0.188624,0.084885,0.978374,0.0865,0.1898,3.0355,0.075190,0.995110,-0.170410,-0.164212,-0.994319,-0.096437,-0.008725,-0.003703,0.019109,0.084885,0.978374,-0.188624,0.006345,0.019855,0.004530,0.1830,-0.1220,-0.1220,-0.056804,0.092234,-0.048020,-0.992955
152677.642000,-0.976949,-0.124767,-0.173214,0.104780,-0.987214,0.120123,-0.185986,0.099205,0.977531,0.1011,0.1871,3.0347,0.076170,1.005850,-0.177730,-0.169126,-1.006358,-0.088118,0.000722,0.009694,0.031034,0.099205,0.977531,-0.185986,-0.006582,0.031377,-0.005461,0.4880,-0.1830,0.1220,-0.057810,0.090462,-0.055236,-0.992685
152677.717000,-0.978669,-0.123348,-0.164291,0.106477,-0.988450,0.107839,-0.175695,0.088045,0.980499,0.0896,0.1766,3.0332,0.079100,0.989740,-0.167960,-0.171901,-0.987999,-0.091440,0.002924,-0.006172,0.013713,0.088045,0.980499,-0.175695,0.006948,0.012300,-0.005928,0.0610,-0.6710,-0.1220,-0.057836,0.085559,-0.049295,-0.993431
152677.792000,-0.976645,-0.126621,-0.173585,0.106349,-0.986875,0.121523,-0.186694,0.100224,0.977292,0.1022,0.1878,3.0331,0.079100,0.994140,-0.171870,-0.173298,-0.993566,-0.083098,-0.003941,0.007514,0.018726,0.100224,0.977292,-0.186694,-0.005039,0.019898,0.001152,0.1220,-0.5490,-0.0610,-0.058678,0.090744,-0.055852,-0.992574
152677.867000,-0.978128,-0.121525,-0.168809,0.106929,-0.989903,0.093051,-0.178413,0.072965,0.981247,0.0742,0.1794,3.0327,0.075680,0.994140,-0.171870,-0.165824,-0.992002,-0.109611,0.001986,-0.017861,0.018362,0.072965,0.981247,-0.178413,0.018780,0.016020,-0.007128,-0.3660,-0.4270,-0.4270,-0.057479,0.087361,-0.041770,-0.993640
152677.942000,-0.976912,-0.126334,-0.172286,0.105033,-0.986245,0.127626,-0.186039,0.106584,0.976744,0.1087,0.1871,3.0345,0.077140,0.994620,-0.172850,-0.171234,-0.994897,-0.077171,-0.001460,0.015778,0.019154,0.106584,0.976744,-0.186039,-0.013335,0.020973,-0.000480,-0.0610,-0.4270,-0.1830,-0.058281,0.090262,-0.058998,-0.992459
