$FLYS,1
$VAR,FIRMWARE_VER,v2024.12.30
$VAR,DEVICE_ID,0017003b3253501720373657
$VAR,SESSION_ID,55892c7fe5cf72146ba7117c
$COL,BARO,time,pressure,temperature
$UNIT,BARO,s,Pa,deg C
$COL,HUM,time,humidity,temperature
$UNIT,HUM,s,percent,deg C
$COL,MAG,time,x,y,z,temperature
$UNIT,MAG,s,gauss,gauss,gauss,deg C
$COL,IMU,time,wx,wy,wz,ax,ay,az,temperature
$UNIT,IMU,s,deg/s,deg/s,deg/s,g,g,g,deg C
$COL,TIME,time,tow,week
$UNIT,TIME,s,s,
$COL,VBAT,time,voltage
$UNIT,VBAT,s,volt
$DATA
$IMU,26859.187,9.277,-22.766,-34.301,-0.01953,0.84228,0.31250,27.75
$IMU,26859.189,-11.108,-14.892,-16.235,-0.00683,1.00048,0.39160,27.75
$IMU,26859.192,-2.197,3.906,0.488,-0.00292,0.99609,0.39404,27.75
$IMU,26859.194,0.366,-2.929,0.122,-0.00732,1.00537,0.39160,27.75
$IMU,26859.196,3.417,-13.732,-10.620,-0.01855,1.02832,0.39404,27.75
$IMU,26859.199,-0.793,1.831,-9.033,-0.03173,1.05175,0.38964,27.75
$IMU,26859.201,-9.155,9.643,-2.136,-0.02783,1.07519,0.38427,27.75
$IMU,26859.204,-17.883,17.089,3.845,-0.01855,1.10058,0.37109,28.22
$IMU,26859.206,-14.343,2.746,-22.338,-0.00781,1.11816,0.35302,28.22
$IMU,26859.208,-11.169,-11.291,-45.104,-0.01171,1.13574,0.33496,28.22
$IMU,26859.211,-15.625,-13.305,-49.133,-0.02734,1.14990,0.31787,28.22
$IMU,26859.213,-19.897,-15.563,-52.001,-0.05322,1.16650,0.30468,28.22
$IMU,26859.215,-23.681,-17.456,-54.199,-0.07226,1.18505,0.30517,28.22
$IMU,26859.218,-27.038,-18.737,-57.312,-0.08496,1.20410,0.30908,28.22
$IMU,26859.220,-29.296,-19.042,-59.753,-0.09521,1.21777,0.30371,28.22
$IMU,26859.222,-30.029,-18.432,-62.194,-0.10009,1.22949,0.29248,28.27
$IMU,26859.225,-30.212,-16.845,-63.598,-0.09472,1.23876,0.28466,28.27
$IMU,26859.227,-31.921,-12.512,-54.809,-0.09228,1.25097,0.28515,28.27
$IMU,26859.229,-26.306,-10.437,-51.879,-0.07519,1.25439,0.29687,28.27
$IMU,26859.232,-19.104,-9.338,-51.391,-0.05810,1.25341,0.31250,28.27
$IMU,26859.234,-12.268,-8.728,-50.170,-0.04003,1.24365,0.32421,28.27
$IMU,26859.236,-6.469,-8.483,-48.217,-0.02685,1.23535,0.33593,28.27
$IMU,26859.239,-2.136,-8.850,-46.203,-0.00146,1.21533,0.35058,28.27
$IMU,26859.241,0.976,-9.521,-43.579,0.02343,1.19824,0.36523,28.25
$IMU,26859.243,2.990,-11.047,-40.161,0.04199,1.18652,0.37988,28.25
$IMU,26859.246,3.723,-12.939,-36.865,0.06982,1.17578,0.39794,28.25
$IMU,26859.248,3.540,-14.526,-33.996,0.08447,1.16796,0.41259,28.25
$IMU,26859.250,2.685,-15.930,-30.944,0.09423,1.16015,0.41992,28.25
$IMU,26859.253,1.403,-16.906,-28.259,0.08984,1.14892,0.41796,28.25
$IMU,26859.255,0.244,-16.662,-25.939,0.07861,1.14306,0.41357,28.25
$IMU,26859.257,-0.366,-15.930,-23.071,0.07031,1.13867,0.40283,28.25
$IMU,26859.260,0.122,-14.953,-19.897,0.06103,1.12353,0.40039,28.26
$IMU,26859.262,2.014,-13.610,-16.845,0.05224,1.11132,0.39062,28.26
$IMU,26859.265,4.699,-12.268,-13.549,0.04931,1.09326,0.38623,28.26
$IMU,26859.267,8.117,-11.535,-10.009,0.05126,1.08203,0.39062,28.26
$IMU,26859.269,11.657,-10.986,-5.737,0.05175,1.06298,0.38867,28.26
$IMU,26859.272,14.465,-10.559,-0.488,0.06396,1.06835,0.38378,28.26
$IMU,26859.274,16.601,-10.375,5.249,0.06884,1.07568,0.38134,28.26
$IMU,26859.276,17.578,-10.437,10.131,0.07568,1.08056,0.37988,28.26
$IMU,26859.279,17.028,-10.498,13.916,0.07275,1.08740,0.37939,28.31
$IMU,26859.281,14.465,-10.498,17.150,0.06982,1.09033,0.37890,28.31
$IMU,26859.283,10.375,-9.948,19.653,0.05419,1.09375,0.37744,28.31
$IMU,26859.286,5.187,-9.094,20.996,0.00195,1.09521,0.37011,28.31
$IMU,26859.288,-0.610,-5.371,19.409,-0.16601,1.11083,0.33593,28.31
$IMU,26859.290,-5.676,0.366,14.160,-0.11523,1.08789,0.28320,28.31
$IMU,26859.293,-11.535,4.455,10.070,-0.05615,1.06054,0.30175,28.31
$IMU,26859.295,-18.615,7.385,7.873,-0.07373,1.03955,0.25488,28.31
$IMU,26859.297,-24.963,7.324,6.103,-0.08544,1.02294,0.19384,28.29
$IMU,26859.300,-29.296,4.028,4.760,-0.08837,1.02392,0.18066,28.29
$IMU,26859.302,-32.470,-1.220,3.601,-0.11669,1.02294,0.16796,28.29
$IMU,26859.304,-35.034,-8.300,2.136,-0.12451,1.00244,0.15527,28.29
$IMU,26859.307,-37.109,-16.906,1.281,-0.11865,0.97851,0.14746,28.29
$IMU,26859.309,-39.306,-26.123,1.220,-0.13232,0.95361,0.13378,28.29
$IMU,26859.311,-40.893,-35.217,0.427,-0.17480,0.99755,0.09472,28.29
$IMU,26859.314,-32.104,-38.696,7.690,-0.17333,1.25146,-0.03906,28.29
$IMU,26859.316,-9.948,-31.921,29.113,-0.21386,1.23876,-0.02490,28.30
$IMU,26859.318,3.540,-24.414,49.316,-0.18798,1.03320,0.00683,28.30
$IMU,26859.321,2.990,-22.460,57.861,-0.17529,0.90380,0.00488,28.30
$IMU,26859.323,0.732,-22.216,59.204,-0.15771,0.92431,-0.00097,28.30
$IMU,26859.326,2.868,-20.080,61.645,-0.13330,0.98974,0.01220,28.30
$IMU,26859.328,8.178,-15.380,69.824,-0.05957,0.90185,0.07519,28.30
$IMU,26859.330,8.728,-11.230,78.491,-0.04394,0.80664,0.12158,28.30
$IMU,26859.333,3.112,-10.375,84.838,-0.04296,0.78320,0.14404,28.30
$IMU,26859.335,-3.723,-10.803,90.759,-0.09765,0.88867,0.14843,28.29
$IMU,26859.337,-8.483,-9.460,98.022,-0.08544,0.96875,0.17285,28.29
$IMU,26859.340,-10.375,-5.737,107.971,-0.02001,1.00244,0.17187,28.29
$IMU,26859.342,-10.864,-0.488,118.347,0.04296,0.96679,0.17187,28.29
$IMU,26859.344,-13.549,3.051,127.441,0.07617,0.92089,0.16162,28.29
$IMU,26859.347,-18.005,3.417,135.742,0.07177,0.92089,0.14306,28.29
$IMU,26859.349,-19.104,2.746,138.305,-0.20751,1.44140,0.01953,28.29
$IMU,26859.351,-15.991,-6.835,87.768,-0.29736,1.75341,-0.10156,28.29
$IMU,26859.354,-13.916,-24.414,21.179,0.13916,1.13769,0.28271,28.31
$IMU,26859.356,-28.198,-29.296,-8.666,0.11718,0.82617,0.24511,28.31
$IMU,26859.358,-30.029,-33.569,-20.751,0.11621,0.99267,0.07470,28.31
$IMU,26859.361,-9.826,-28.076,-11.901,0.02050,0.93164,0.10742,28.31
$IMU,26859.363,13.488,-11.779,5.187,-0.02099,0.87939,0.13623,28.31
$IMU,26859.365,27.587,1.159,11.779,0.01025,0.90527,0.08007,28.31
$IMU,26859.368,35.217,3.417,9.643,0.06738,0.82324,0.10742,28.31
$IMU,26859.370,34.851,0.183,11.352,-0.01806,0.86035,0.10839,28.31
$IMU,26859.372,35.095,1.281,9.460,-0.02636,1.08447,0.08886,28.30
$IMU,26859.375,33.996,0.610,6.469,-0.04541,1.19287,0.10107,28.30
$IMU,26859.377,32.897,0.976,7.263,-0.08691,1.20898,0.12060,28.30
$IMU,26859.379,30.944,2.624,8.483,-0.08740,1.24658,0.10644,28.30
$IMU,26859.382,28.625,4.211,9.887,-0.10009,1.23095,0.09619,28.30
$IMU,26859.384,25.268,6.591,12.573,-0.07128,1.18896,0.09765,28.30
$IMU,26859.386,20.324,11.413,16.174,-0.01953,1.18750,0.09912,28.30
$IMU,26859.389,14.648,17.333,16.845,-0.02490,1.17236,0.07275,28.30
$IMU,26859.391,8.361,20.324,15.686,-0.01904,1.18847,0.06054,28.27
$IMU,26859.394,4.272,21.606,14.892,-0.00537,1.21923,0.05126,28.27
$IMU,26859.396,1.708,21.728,15.014,0.01318,1.22607,0.04833,28.27
$IMU,26859.398,0.488,19.287,15.747,0.02246,1.19287,0.03125,28.27
$IMU,26859.401,0.610,13.366,17.639,0.01513,1.17236,0.00488,28.27
$IMU,26859.403,2.502,5.310,17.333,0.06494,1.21044,0.04345,28.27
$IMU,26859.405,2.624,-0.610,14.282,0.09960,1.21240,0.08642,28.27
$IMU,26859.408,1.831,-0.976,11.413,0.09326,1.17773,0.10546,28.27
$IMU,26859.410,0.122,-0.732,8.911,0.06787,1.13085,0.11865,28.32
$IMU,26859.412,-1.098,-0.427,8.056,0.04199,1.07177,0.12890,28.32
$IMU,26859.415,-1.281,0.549,9.582,0.04052,1.04150,0.15722,28.32
$IMU,26859.417,-2.624,4.272,10.986,0.02880,1.02441,0.21386,28.32
$IMU,26859.419,-6.958,14.099,10.375,0.00634,1.01855,0.26757,28.32
$IMU,26859.422,-14.404,27.526,8.728,-0.00927,0.98779,0.18945,28.32
$IMU,26859.424,-15.136,32.714,9.521,0.03320,0.95849,0.06884,28.32
$BARO,26859.426,86860.94,28.53
$IMU,26859.426,-10.070,28.686,12.023,0.05468,0.98388,0.11083,28.32
$IMU,26859.429,-8.728,24.719,10.498,0.08691,0.99072,0.15039,28.28
$IMU,26859.431,-10.375,23.559,5.798,0.06005,0.99902,0.20507,28.28
$MAG,26859.432,-0.142,-0.465,-0.465,-22.2
$IMU,26859.433,-15.014,24.780,0.122,0.04248,0.95898,0.17529,28.28
$IMU,26859.436,-15.197,23.986,-1.098,0.06054,0.91601,0.10595,28.28
$IMU,26859.438,-11.047,21.728,3.112,0.05371,0.93408,0.13671,28.28
$IMU,26859.440,-6.591,19.958,5.981,0.07373,0.93798,0.08154,28.28
$MAG,26859.442,-0.150,-0.528,-0.526,27.2
$IMU,26859.443,-0.793,16.052,6.530,0.10156,0.94970,0.08593,28.28
$IMU,26859.445,3.784,11.596,3.723,0.12841,0.97314,0.11669,28.28
$IMU,26859.447,3.723,9.277,-2.502,0.12841,0.97949,0.17187,28.33
$IMU,26859.450,3.051,9.582,-7.019,0.15917,0.95458,0.08789,28.33
$MAG,26859.452,-0.150,-0.522,-0.520,27.2
$IMU,26859.452,7.263,8.850,-7.751,0.12451,0.98779,0.11035,28.33
$IMU,26859.455,10.009,8.850,-8.117,0.10205,1.00292,0.12548,28.33
$IMU,26859.457,11.169,9.765,-7.629,0.10156,1.00146,0.11132,28.33
$IMU,26859.459,12.023,10.742,-6.408,0.07275,1.01025,0.12792,28.33
$IMU,26859.462,11.352,12.145,-6.591,0.08544,0.98974,0.10351,28.33
$MAG,26859.463,-0.145,-0.525,-0.526,27.0
$IMU,26859.464,11.657,12.756,-5.798,0.08984,0.98974,0.09667,28.33
$IMU,26859.466,10.864,13.061,-6.469,0.06542,1.02246,0.10009,28.33
$IMU,26859.469,9.399,13.122,-8.666,0.07470,1.08105,0.08593,28.33
$HUM,26859.471,34.6,29.0
$IMU,26859.471,8.789,11.169,-11.230,0.12109,1.13281,0.05517,28.33
$MAG,26859.473,-0.150,-0.523,-0.517,27.2
$IMU,26859.473,10.192,4.638,-10.925,0.08105,1.10888,0.05517,28.33
$IMU,26859.476,10.314,0.366,-10.314,0.04101,1.08203,0.10449,28.33
$IMU,26859.478,9.460,0.549,-9.765,0.01367,1.04345,0.09863,28.33
$IMU,26859.480,8.300,0.610,-8.483,0.01318,1.01855,0.09277,28.33
$MAG,26859.483,-0.148,-0.523,-0.517,27.2
$IMU,26859.483,7.202,0.488,-7.507,0.01464,0.98632,0.09814,28.33
$IMU,26859.485,6.408,0.488,-7.019,0.01318,0.95556,0.10888,28.32
$IMU,26859.487,6.225,0.366,-6.774,0.01416,0.93847,0.12792,28.32
$IMU,26859.490,6.469,0.549,-6.958,0.02441,0.94140,0.14306,28.32
$IMU,26859.492,7.385,0.610,-7.507,0.02050,0.93750,0.15625,28.32
$MAG,26859.493,-0.151,-0.514,-0.520,27.2
$IMU,26859.494,8.544,0.671,-8.117,0.02294,0.94091,0.16455,28.32
$IMU,26859.497,10.009,0.549,-8.300,0.01367,0.94335,0.17236,28.32
$IMU,26859.499,11.718,0.732,-8.117,0.01513,0.94873,0.17089,28.32
$IMU,26859.501,13.610,0.488,-7.934,0.01025,0.95166,0.16503,28.32
$MAG,26859.503,-0.135,-0.529,-0.514,27.2
$IMU,26859.504,15.319,0.488,-7.812,0.00976,0.95361,0.15673,28.33
$IMU,26859.506,16.662,0.488,-7.873,0.00781,0.96484,0.14794,28.33
$IMU,26859.508,17.761,0.610,-7.995,0.00732,0.97851,0.13964,28.33
$IMU,26859.511,18.554,0.610,-7.995,0.00537,0.99707,0.13525,28.33
$MAG,26859.513,-0.150,-0.531,-0.511,27.2
$IMU,26859.513,19.287,0.671,-7.751,0.00439,1.01660,0.12744,28.33
$IMU,26859.516,20.019,0.427,-7.629,0.00830,1.02441,0.12451,28.33
$IMU,26859.518,20.874,0.244,-7.629,0.01416,1.04101,0.11865,28.33
$IMU,26859.520,21.545,0.183,-7.690,0.01367,1.05078,0.11083,28.33
$MAG,26859.523,-0.153,-0.525,-0.514,27.2
$IMU,26859.523,21.484,0.244,-7.446,0.01318,1.05273,0.10400,28.35
$IMU,26859.525,20.996,0.305,-7.080,0.00830,1.04882,0.09521,28.35
$IMU,26859.527,19.775,0.427,-6.286,0.00683,1.04003,0.08740,28.35
$BARO,26859.528,86867.08,28.54
$IMU,26859.530,18.127,0.244,-5.493,0.00390,1.03857,0.07666,28.35
$IMU,26859.532,16.113,0.122,-4.943,-0.00244,1.03076,0.06982,28.35
$IMU,26859.534,13.732,0.122,-4.699,0.00244,1.02734,0.06005,28.35
$MAG,26859.533,-0.150,-0.522,-0.507,27.2
$IMU,26859.537,10.742,0.305,-4.577,0.00097,1.03222,0.05371,28.35
$IMU,26859.539,7.507,0.366,-4.333,-0.00146,1.03564,0.04589,28.35
$IMU,26859.541,4.211,0.305,-3.906,-0.00195,1.04052,0.04833,28.34
$MAG,26859.543,-0.151,-0.517,-0.507,27.3
$IMU,26859.544,0.793,0.244,-3.234,-0.00048,1.03710,0.04589,28.34
$IMU,26859.546,-2.502,0.061,-2.502,0.00146,1.02880,0.04394,28.34
$IMU,26859.548,-5.798,0.183,-1.953,0.00781,1.02685,0.04492,28.34
$IMU,26859.551,-9.033,0.183,-1.525,0.00781,1.02246,0.04394,28.34
$MAG,26859.553,-0.144,-0.523,-0.511,27.3
$IMU,26859.553,-12.268,0.244,-1.281,0.00097,1.02246,0.05029,28.34
$IMU,26859.555,-15.197,0.427,-0.793,-0.00537,1.02929,0.05761,28.34
$IMU,26859.558,-17.700,0.305,0.061,-0.01123,1.03222,0.06494,28.34
$IMU,26859.560,-19.775,0.122,0.915,-0.01513,1.03417,0.07812,28.35
$IMU,26859.562,-21.301,0.183,1.770,-0.01367,1.03222,0.08984,28.35
$MAG,26859.563,-0.144,-0.531,-0.516,27.3
$IMU,26859.565,-22.094,0.183,2.258,-0.01269,1.02294,0.10009,28.35
$IMU,26859.567,-22.155,0.122,2.502,-0.00781,1.01025,0.11621,28.35
$IMU,26859.569,-21.667,-0.061,2.563,-0.00732,1.00341,0.12792,28.35
$IMU,26859.572,-20.568,-0.244,2.685,-0.00634,0.98632,0.14257,28.35
$MAG,26859.574,-0.142,-0.526,-0.510,27.3
$IMU,26859.574,-18.859,-0.244,2.868,0.00048,0.97753,0.15429,28.35
$IMU,26859.577,-16.784,-0.183,2.807,0.00927,0.96533,0.16503,28.35
$IMU,26859.579,-14.282,-0.183,2.685,0.01806,0.95800,0.17578,28.36
$IMU,26859.581,-11.474,-0.122,2.319,0.02148,0.95214,0.18359,28.36
$MAG,26859.584,-0.136,-0.523,-0.517,27.2
$IMU,26859.584,-8.300,-0.183,1.770,0.02685,0.95556,0.18798,28.36
$IMU,26859.586,-5.065,-0.244,1.220,0.02734,0.95849,0.18798,28.36
$IMU,26859.588,-1.892,-0.183,0.671,0.02734,0.96826,0.18457,28.36
$IMU,26859.591,0.793,-0.183,0.244,0.02880,0.97167,0.17138,28.36
$IMU,26859.593,3.112,-0.244,-0.244,0.02734,0.97949,0.16064,28.36
$MAG,26859.594,-0.144,-0.523,-0.526,27.3
$IMU,26859.595,5.004,-0.244,-0.610,0.02392,0.98583,0.15234,28.36
$IMU,26859.598,6.530,-0.244,-0.854,0.02343,0.99414,0.14111,28.35
$IMU,26859.600,7.629,-0.244,-0.976,0.02001,1.00341,0.13281,28.35
$IMU,26859.602,8.361,-0.183,-0.976,0.01757,1.01855,0.12109,28.35
$MAG,26859.604,-0.138,-0.514,-0.516,27.3
$IMU,26859.605,8.728,-0.305,-0.915,0.01611,1.02490,0.11230,28.35
$IMU,26859.607,8.605,-0.366,-0.854,0.01904,1.01660,0.09765,28.35
$IMU,26859.609,7.446,-0.244,-0.671,0.02490,1.00878,0.08154,28.35
$IMU,26859.612,5.615,-0.305,-0.854,0.02832,1.02539,0.07373,28.35
$MAG,26859.614,-0.141,-0.528,-0.513,27.2
$IMU,26859.614,3.112,-0.122,-0.915,0.02441,1.03271,0.06591,28.35
$IMU,26859.616,0.183,-0.061,-0.549,0.01953,1.03662,0.05810,28.32
$IMU,26859.619,-3.112,-0.122,0.122,0.01367,1.04394,0.05175,28.32
$IMU,26859.621,-6.469,-0.244,0.976,0.01074,1.04833,0.04980,28.32
$IMU,26859.623,-10.192,-0.183,1.770,0.00488,1.04296,0.04394,28.32
$MAG,26859.624,-0.145,-0.534,-0.520,27.3
$IMU,26859.626,-14.099,-0.122,2.136,0.00781,1.04003,0.03955,28.32
$IMU,26859.628,-18.127,-0.061,2.319,0.01123,1.03710,0.04345,28.32
$BARO,26859.629,86868.62,28.54
$IMU,26859.630,-22.155,0.000,2.197,0.01171,1.03564,0.04394,28.32
$IMU,26859.633,-25.756,-0.183,1.953,0.01513,1.03613,0.05175,28.32
$MAG,26859.634,-0.142,-0.523,-0.516,27.3
$IMU,26859.635,-29.113,0.000,1.770,0.01513,1.03466,0.06298,28.39
$IMU,26859.638,-31.799,-0.061,2.075,0.00439,1.03369,0.07910,28.39
$IMU,26859.640,-33.752,0.061,2.746,-0.00048,1.02929,0.10058,28.39
$IMU,26859.642,-34.606,-0.183,3.662,0.00390,1.02392,0.11816,28.39
$MAG,26859.644,-0.138,-0.519,-0.525,27.5
$IMU,26859.645,-34.729,-0.244,4.394,0.00878,1.02050,0.12841,28.39
$IMU,26859.647,-34.240,-0.244,4.333,0.01562,1.01806,0.14306,28.39
$IMU,26859.649,-33.264,-0.366,3.601,0.02392,1.01171,0.15625,28.39
$IMU,26859.652,-31.799,-0.366,2.807,0.02246,0.99853,0.16601,28.39
$MAG,26859.654,-0.154,-0.526,-0.525,27.2
$IMU,26859.654,-30.029,-0.244,2.258,0.02246,0.99462,0.17333,28.38
$IMU,26859.656,-27.893,-0.183,2.075,0.02197,0.99121,0.17968,28.38
$IMU,26859.659,-25.451,-0.244,2.258,0.02148,0.98681,0.18408,28.38
$IMU,26859.661,-23.132,-0.366,2.380,0.02392,0.97558,0.18457,28.38
$IMU,26859.663,-20.935,-0.366,2.319,0.03173,0.97607,0.18408,28.38
$MAG,26859.664,-0.150,-0.525,-0.532,27.5
$IMU,26859.666,-18.798,-0.244,1.831,0.03320,0.97656,0.18164,28.38
$IMU,26859.668,-16.784,-0.061,1.098,0.04199,0.98144,0.18066,28.38
$IMU,26859.670,-15.075,0.061,0.305,0.04150,0.98388,0.17529,28.38
$IMU,26859.673,-13.549,-0.122,-0.244,0.04052,0.98339,0.17187,28.34
$MAG,26859.674,-0.148,-0.522,-0.528,27.3
$IMU,26859.675,-12.268,-0.122,-0.488,0.02880,0.97216,0.16357,28.34
$IMU,26859.677,-11.535,-0.122,0.061,0.01806,0.95947,0.15576,28.34
$IMU,26859.680,-11.291,0.122,0.976,0.01318,0.96240,0.15039,28.34
$IMU,26859.682,-11.047,0.061,1.342,0.01855,0.97216,0.14892,28.34
$MAG,26859.684,-0.144,-0.525,-0.526,27.3
$IMU,26859.684,-10.864,0.244,0.976,0.02832,0.98095,0.14746,28.34
$IMU,26859.687,-10.620,0.183,0.244,0.03515,0.98876,0.15136,28.34
$IMU,26859.689,-10.192,0.000,-0.549,0.03564,0.99462,0.15380,28.34
$IMU,26859.691,-9.582,0.000,-0.915,0.03125,0.99755,0.15917,28.34
$IMU,26859.694,-8.972,0.183,-1.037,0.03125,0.99755,0.15576,28.34
$MAG,26859.695,-0.150,-0.523,-0.525,27.3
$IMU,26859.696,-8.178,0.183,-0.854,0.02929,0.99511,0.15673,28.34
$IMU,26859.699,-7.385,0.000,-0.732,0.02685,0.99218,0.15820,28.34
$IMU,26859.701,-6.713,0.122,-0.732,0.02343,0.98828,0.15625,28.34
$IMU,26859.703,-6.286,0.183,-0.854,0.01806,0.98681,0.15136,28.34
$MAG,26859.705,-0.144,-0.529,-0.529,27.5
$IMU,26859.706,-5.920,0.183,-1.098,0.01416,0.99267,0.15185,28.34
$IMU,26859.708,-5.615,0.244,-1.342,0.01416,0.99804,0.15087,28.34
$IMU,26859.710,-5.371,0.061,-1.464,0.00537,0.99707,0.15234,28.30
$IMU,26859.713,-5.187,0.000,-1.098,0.00634,1.00292,0.15234,28.30
$MAG,26859.715,-0.142,-0.516,-0.531,27.2
$IMU,26859.715,-5.004,-0.122,-0.732,0.00097,1.00292,0.14990,28.30
$IMU,26859.717,-4.882,-0.061,-0.427,0.00683,1.00341,0.15429,28.30
$IMU,26859.720,-4.760,0.000,-0.427,0.01660,1.00585,0.16015,28.30
$IMU,26859.722,-4.333,0.061,-0.610,0.01660,1.00927,0.16503,28.30
$IMU,26859.724,-3.662,0.183,-0.915,0.02001,1.00927,0.16601,28.30
$MAG,26859.725,-0.142,-0.525,-0.529,27.3
$IMU,26859.727,-2.807,0.000,-1.098,0.01611,1.01025,0.16894,28.30
$IMU,26859.729,-1.892,-0.122,-0.915,0.01220,1.00830,0.16894,28.36
$BARO,26859.731,86863.11,28.53
$IMU,26859.731,-1.098,0.061,-0.549,0.01171,1.00976,0.16748,28.36
$IMU,26859.734,-0.244,0.000,-0.366,0.01171,1.00634,0.16601,28.36
$MAG,26859.735,-0.141,-0.525,-0.525,27.3
$IMU,26859.736,0.549,-0.061,-0.366,0.01269,1.01220,0.16357,28.36
$IMU,26859.738,1.159,-0.183,-0.427,0.00488,1.01269,0.16064,28.36
$IMU,26859.741,1.525,-0.122,-0.610,0.00488,1.01318,0.15429,28.36
$IMU,26859.743,1.647,-0.244,-0.610,0.00585,1.01123,0.14746,28.36
$MAG,26859.745,-0.142,-0.526,-0.531,27.5
$IMU,26859.745,1.281,-0.183,-0.366,0.00537,1.00927,0.14062,28.36
$IMU,26859.748,0.732,-0.061,0.000,0.00781,1.00781,0.13671,28.36
$IMU,26859.750,-0.061,0.061,0.244,0.01464,1.00781,0.13427,28.36
$IMU,26859.752,-0.732,-0.183,0.488,0.02001,1.00146,0.13232,28.36
$MAG,26859.755,-0.150,-0.522,-0.529,27.3
$IMU,26859.755,-1.708,-0.061,0.366,0.02246,1.00341,0.13427,28.36
$IMU,26859.757,-2.624,-0.122,0.183,0.02197,0.99853,0.13525,28.36
$IMU,26859.759,-3.356,-0.244,0.000,0.02392,0.99804,0.13378,28.36
$IMU,26859.762,-4.089,0.061,0.000,0.02099,0.99853,0.13720,28.36
$IMU,26859.764,-4.821,-0.061,0.000,0.02197,0.99951,0.13574,28.36
$MAG,26859.765,-0.144,-0.520,-0.531,27.5
$IMU,26859.767,-5.615,-0.122,0.183,0.02001,0.99902,0.13623,28.38
$IMU,26859.769,-6.469,-0.061,0.305,0.01562,1.00146,0.13330,28.38
$IMU,26859.771,-7.629,-0.061,0.305,0.01611,1.00146,0.13037,28.38
$IMU,26859.774,-8.789,0.000,0.244,0.02001,1.00097,0.12646,28.38
$MAG,26859.775,-0.141,-0.516,-0.534,27.5
$IMU,26859.776,-10.131,0.061,0.122,0.01855,1.00439,0.12792,28.38
$IMU,26859.778,-11.413,-0.122,0.122,0.01904,1.00976,0.12744,28.38
$IMU,26859.781,-12.939,0.000,0.183,0.02197,1.00976,0.12597,28.38
$IMU,26859.783,-14.526,0.244,0.305,0.02246,1.01171,0.12646,28.38
$MAG,26859.785,-0.148,-0.526,-0.531,27.2
$IMU,26859.785,-16.174,0.244,0.427,0.02392,1.01513,0.12597,28.37
$IMU,26859.788,-17.578,0.244,0.305,0.02832,1.01660,0.12451,28.37
$IMU,26859.790,-19.104,0.122,0.183,0.02783,1.01513,0.12890,28.37
$IMU,26859.792,-20.568,0.122,0.061,0.02050,1.01513,0.13085,28.37
$MAG,26859.795,-0.132,-0.517,-0.544,27.5
$IMU,26859.795,-22.094,0.305,0.000,0.02148,1.01464,0.13623,28.37
$IMU,26859.797,-23.315,0.244,0.061,0.02050,1.01269,0.14257,28.37
$IMU,26859.799,-24.475,0.366,0.183,0.01367,1.01123,0.14501,28.37
$IMU,26859.802,-25.146,0.305,0.244,0.01220,1.00439,0.15039,28.37
$IMU,26859.804,-25.695,0.366,0.427,0.01416,0.99951,0.15576,28.35
$MAG,26859.806,-0.151,-0.526,-0.532,27.3
$IMU,26859.806,-25.878,0.305,0.366,0.01904,1.00000,0.16406,28.35
$IMU,26859.809,-25.939,0.488,0.244,0.01513,0.99804,0.16699,28.35
$IMU,26859.811,-25.573,0.244,0.244,0.01562,0.99462,0.17138,28.35
$IMU,26859.813,-25.024,0.183,0.305,0.01416,0.99804,0.17968,28.35
$MAG,26859.816,-0.145,-0.525,-0.543,27.3
$IMU,26859.816,-24.475,0.488,0.366,0.01904,0.99658,0.18261,28.35
$IMU,26859.818,-23.559,0.549,0.488,0.01708,0.99169,0.18945,28.35
$IMU,26859.820,-22.277,0.305,0.427,0.01953,0.99267,0.19726,28.35
$IMU,26859.823,-20.812,0.366,0.122,0.02343,0.99414,0.20458,28.38
$IMU,26859.825,-19.042,0.366,-0.122,0.02001,0.99560,0.20800,28.38
$MAG,26859.826,-0.142,-0.520,-0.541,27.5
$IMU,26859.828,-17.150,0.183,-0.183,0.02099,0.99023,0.21044,28.38
$IMU,26859.830,-15.075,0.122,-0.366,0.01806,0.98828,0.21142,28.38
$BARO,26859.832,86865.06,28.54
$IMU,26859.832,-13.061,0.122,-0.122,0.01318,0.98583,0.21435,28.38
$IMU,26859.835,-10.986,0.061,0.183,0.01269,0.98437,0.21240,28.38
$MAG,26859.836,-0.154,-0.517,-0.543,27.3
$IMU,26859.837,-8.911,-0.183,0.366,0.01757,0.98437,0.21337,28.38
$IMU,26859.839,-7.080,-0.061,0.122,0.01611,0.98876,0.20947,28.38
$IMU,26859.842,-5.310,-0.061,-0.061,0.01660,0.98681,0.20654,28.39
$IMU,26859.844,-3.845,0.000,-0.122,0.01318,0.98486,0.20361,28.39
$MAG,26859.846,-0.139,-0.526,-0.541,27.3
$IMU,26859.846,-2.441,-0.061,0.000,0.01416,0.98876,0.20019,28.39
$IMU,26859.849,-1.281,-0.061,0.183,0.01171,0.98925,0.19482,28.39
$IMU,26859.851,-0.244,-0.183,0.488,0.01855,0.99121,0.19335,28.39
$IMU,26859.853,0.671,-0.244,0.366,0.01855,0.99267,0.19335,28.39
$MAG,26859.856,-0.151,-0.520,-0.544,27.3
$IMU,26859.856,1.525,-0.061,0.000,0.02246,0.99414,0.19726,28.39
$IMU,26859.858,2.441,0.122,-0.305,0.02343,0.99462,0.19287,28.39
$IMU,26859.860,3.356,0.000,-0.549,0.01904,0.98925,0.19042,28.41
$IMU,26859.863,4.455,-0.122,-0.549,0.01660,0.99023,0.19287,28.41
$IMU,26859.865,5.371,-0.122,-0.183,0.01367,0.98974,0.19335,28.41
$MAG,26859.866,-0.139,-0.511,-0.538,27.6
$IMU,26859.867,6.286,-0.244,0.061,0.01464,0.98974,0.19287,28.41
$IMU,26859.870,7.263,-0.305,0.183,0.01904,0.99267,0.18994,28.41
$IMU,26859.872,8.178,-0.183,0.000,0.01806,0.99462,0.19189,28.41
$IMU,26859.874,9.155,-0.244,-0.183,0.01953,0.99316,0.19287,28.41
$MAG,26859.876,-0.139,-0.517,-0.538,27.3
$IMU,26859.877,10.131,-0.305,-0.366,0.01953,0.99560,0.18994,28.41
$IMU,26859.879,11.108,-0.183,-0.549,0.01953,0.99609,0.18994,28.35
$IMU,26859.881,11.962,-0.244,-0.427,0.01953,0.99658,0.19042,28.35
$IMU,26859.884,13.000,-0.366,-0.305,0.02490,0.99609,0.18847,28.35
$MAG,26859.886,-0.151,-0.520,-0.541,27.5
$IMU,26859.886,13.854,-0.183,-0.183,0.02246,0.99804,0.18750,28.35
$IMU,26859.889,14.709,-0.183,-0.305,0.02490,0.99804,0.18847,28.35
$IMU,26859.891,15.747,-0.366,-0.610,0.02246,0.99804,0.18505,28.35
$IMU,26859.893,16.723,-0.305,-0.793,0.02099,0.99853,0.18505,28.35
$MAG,26859.896,-0.139,-0.520,-0.538,27.3
$IMU,26859.896,17.578,-0.183,-0.915,0.01855,0.99218,0.18701,28.35
$IMU,26859.898,18.554,-0.366,-0.854,0.01708,0.98974,0.18457,28.37
$IMU,26859.900,19.531,-0.427,-0.610,0.01660,0.99707,0.18261,28.37
$IMU,26859.903,20.446,-0.488,-0.549,0.01611,0.99658,0.17919,28.37
$IMU,26859.905,21.240,-0.427,-0.549,0.01855,0.99755,0.18164,28.37
$MAG,26859.906,-0.141,-0.514,-0.537,27.5
$IMU,26859.907,22.033,-0.366,-0.671,0.02099,0.99804,0.17919,28.37
$IMU,26859.910,23.010,-0.244,-0.915,0.02148,0.99414,0.17968,28.37
$IMU,26859.912,23.925,-0.305,-1.037,0.02050,0.99511,0.17724,28.37
$IMU,26859.914,24.841,-0.488,-0.976,0.01953,0.99609,0.17871,28.37
$MAG,26859.916,-0.136,-0.522,-0.537,27.3
$IMU,26859.917,25.756,-0.427,-0.915,0.01953,0.99414,0.17773,28.37
$IMU,26859.919,26.672,-0.427,-0.793,0.01708,0.99365,0.17333,28.37
$IMU,26859.921,27.465,-0.488,-0.854,0.01806,0.99414,0.17041,28.37
$IMU,26859.924,28.381,-0.549,-0.854,0.01611,0.99462,0.17285,28.37
$IMU,26859.926,29.296,-0.488,-0.976,0.01660,0.99560,0.17138,28.37
$MAG,26859.927,-0.139,-0.516,-0.538,27.3
$IMU,26859.928,30.212,-0.671,-1.098,0.01171,0.99462,0.17187,28.37
$IMU,26859.931,31.188,-0.671,-1.159,0.01416,0.99658,0.17041,28.37
$IMU,26859.933,31.799,-0.427,-1.037,0.01757,1.00585,0.15576,28.37
$BARO,26859.934,86876.40,28.53
$IMU,26859.935,31.494,-0.488,-1.220,0.01806,1.00927,0.13525,28.41
$MAG,26859.937,-0.141,-0.525,-0.525,27.6
$IMU,26859.938,30.334,-0.427,-1.708,0.03320,1.01904,0.12255,28.41
$IMU,26859.940,28.747,-0.305,-2.746,0.03759,1.02978,0.12158,28.41
$IMU,26859.942,27.160,-0.305,-4.272,0.04003,1.01904,0.11914,28.41
$IMU,26859.945,25.756,-0.183,-5.065,0.02978,1.01464,0.11865,28.41
$MAG,26859.947,-0.145,-0.528,-0.523,27.3
$IMU,26859.947,24.475,-0.183,-4.882,0.01562,1.01123,0.12158,28.41
$IMU,26859.950,23.498,0.000,-3.723,0.00341,1.00781,0.11816,28.41
$IMU,26859.952,22.644,-0.122,-2.441,0.00244,1.00830,0.12011,28.41
$IMU,26859.954,21.667,-0.244,-1.708,0.00341,1.00537,0.11572,28.37
$MAG,26859.957,-0.154,-0.519,-0.525,27.3
$IMU,26859.957,20.324,0.000,-1.586,0.00927,1.00927,0.11279,28.37
$IMU,26859.959,18.859,0.061,-2.136,0.01074,1.01464,0.10888,28.37
$IMU,26859.961,17.517,-0.183,-2.807,0.01171,1.02197,0.11035,28.37
$IMU,26859.964,15.930,0.000,-3.051,0.01074,1.01953,0.10449,28.37
$IMU,26859.966,14.343,0.061,-2.563,0.01416,1.02197,0.10546,28.37
$MAG,26859.967,-0.138,-0.519,-0.526,27.6
$IMU,26859.968,12.695,-0.183,-1.586,0.01269,1.02050,0.10400,28.37
$IMU,26859.971,10.925,-0.305,-0.671,0.01806,1.01660,0.09619,28.37
$IMU,26859.973,8.728,-0.122,-0.305,0.02392,1.01513,0.09667,28.41
$IMU,26859.975,6.591,-0.183,-0.427,0.02685,1.01416,0.09375,28.41
$MAG,26859.977,-0.151,-0.529,-0.522,27.3
$IMU,26859.978,4.333,-0.244,-1.037,0.02294,1.01562,0.09082,28.41
$IMU,26859.980,2.075,-0.122,-1.464,0.01757,1.01416,0.08984,28.41
$IMU,26859.982,-0.061,0.061,-1.342,0.00732,1.01074,0.09277,28.41
$IMU,26859.985,-2.197,0.000,-0.732,0.00195,1.00878,0.09423,28.41
$MAG,26859.987,-0.136,-0.514,-0.528,27.3
$IMU,26859.987,-4.272,0.061,0.366,0.00195,1.01025,0.09619,28.41
$IMU,26859.989,-6.225,-0.061,1.281,0.00634,1.01611,0.09521,28.41
$IMU,26859.992,-8.056,-0.244,1.708,0.01318,1.01904,0.09423,28.34
$IMU,26859.994,-10.009,-0.122,1.464,0.01611,1.01855,0.09716,28.34
$IMU,26859.996,-11.901,0.000,1.037,0.02001,1.01513,0.09667,28.34
$MAG,26859.997,-0.148,-0.529,-0.525,27.3
$IMU,26859.999,-13.732,0.244,0.793,0.01855,1.00878,0.10156,28.34
$IMU,26860.001,-15.258,0.183,0.915,0.01416,1.01269,0.10888,28.34
$IMU,26860.003,-16.662,0.000,1.525,0.01318,1.00634,0.11035,28.34
$IMU,26860.006,-17.944,-0.183,2.319,0.01025,1.00683,0.11425,28.34
$MAG,26860.007,-0.148,-0.522,-0.528,27.3
$IMU,26860.008,-19.287,-0.183,2.868,0.01464,1.00927,0.11767,28.34
$IMU,26860.011,-20.507,-0.122,2.868,0.01562,1.01269,0.12060,28.37
$IMU,26860.013,-21.728,-0.061,2.563,0.01660,1.00976,0.11718,28.37
$IMU,26860.015,-22.949,-0.183,2.258,0.01562,1.01220,0.11816,28.37
$MAG,26860.017,-0.145,-0.516,-0.522,27.3
$IMU,26860.018,-24.108,-0.488,2.258,0.01464,1.00585,0.12402,28.37
$IMU,26860.020,-25.390,-0.244,2.685,0.00781,1.00439,0.12304,28.37
$IMU,26860.022,-26.550,-0.183,3.417,0.00830,1.00781,0.12158,28.37
$IMU,26860.025,-27.893,0.061,4.089,0.01269,1.00878,0.12109,28.37
$MAG,26860.027,-0.147,-0.528,-0.526,27.5
$IMU,26860.027,-29.174,0.000,4.455,0.01464,1.00927,0.12304,28.37
$IMU,26860.029,-30.151,0.122,3.967,0.03173,1.02392,0.13476,28.40
$IMU,26860.032,-30.395,0.183,2.014,0.03955,1.02441,0.15527,28.40
$IMU,26860.034,-29.663,0.244,0.000,0.04589,1.01269,0.16992,28.40
$BARO,26860.035,86876.40,28.53
$IMU,26860.036,-28.686,0.427,-1.220,0.03564,1.00732,0.17333,28.40
$MAG,26860.038,-0.142,-0.528,-0.540,27.3
$IMU,26860.039,-27.770,0.366,-1.220,0.02099,1.00244,0.17529,28.40
$IMU,26860.041,-26.611,0.427,0.000,0.01269,0.99902,0.17333,28.40
$IMU,26860.043,-25.512,0.122,1.342,0.01171,0.99902,0.17822,28.40
$IMU,26860.046,-24.414,0.061,1.831,0.01660,0.99414,0.17675,28.40
$MAG,26860.048,-0.141,-0.519,-0.529,27.3
$IMU,26860.048,-23.498,0.061,1.342,0.02099,0.99462,0.17285,28.37
$IMU,26860.050,-22.644,0.183,0.244,0.02050,0.99560,0.17871,28.37
$IMU,26860.053,-21.667,0.183,-0.732,0.01953,0.99511,0.17871,28.37
$IMU,26860.055,-20.812,0.244,-0.915,0.01562,0.99267,0.17871,28.37
$IMU,26860.057,-19.714,0.122,-0.305,0.01513,0.99414,0.18115,28.37
$MAG,26860.058,-0.147,-0.517,-0.541,27.3
$IMU,26860.060,-18.737,0.061,0.671,0.01806,0.99462,0.18261,28.37
$IMU,26860.062,-17.761,0.000,1.220,0.02343,0.99902,0.18017,28.37
$IMU,26860.064,-16.967,0.183,1.098,0.03173,0.99707,0.18505,28.37
$IMU,26860.067,-16.052,0.183,0.183,0.03320,0.99072,0.18359,28.37
$MAG,26860.068,-0.147,-0.522,-0.535,27.5
$IMU,26860.069,-15.136,0.305,-0.793,0.02490,0.99511,0.18359,28.37
$IMU,26860.072,-14.099,0.305,-1.342,0.01806,0.99267,0.18505,28.37
$IMU,26860.074,-13.122,0.427,-0.976,0.00732,0.98828,0.18359,28.37
$IMU,26860.076,-12.023,0.183,-0.122,0.00390,0.98681,0.18310,28.37
$MAG,26860.078,-0.144,-0.517,-0.534,27.3
$IMU,26860.079,-10.986,-0.061,0.732,0.00927,0.99365,0.18554,28.37
$IMU,26860.081,-10.009,-0.061,0.915,0.01513,0.99462,0.18652,28.37
$IMU,26860.083,-8.972,-0.122,0.488,0.02001,0.99267,0.18945,28.37
$IMU,26860.086,-8.056,-0.061,-0.244,0.02441,0.99169,0.18896,28.42
$MAG,26860.088,-0.145,-0.520,-0.541,27.3
$IMU,26860.088,-7.141,0.061,-0.793,0.02001,0.99365,0.19042,28.42
$IMU,26860.090,-6.225,0.183,-0.854,0.01660,0.99267,0.18945,28.42
$IMU,26860.093,-5.187,0.000,-0.305,0.01171,0.99414,0.18505,28.42
$IMU,26860.095,-4.272,-0.061,0.305,0.01171,0.99316,0.18798,28.42
$IMU,26860.097,-3.417,-0.061,0.549,0.01416,0.99658,0.18896,28.42
$MAG,26860.098,-0.138,-0.525,-0.540,27.5
$IMU,26860.100,-2.563,0.061,0.427,0.02685,0.99902,0.19091,28.42
$IMU,26860.102,-1.586,-0.061,-0.183,0.02343,0.99951,0.18945,28.42
$IMU,26860.104,-0.671,0.061,-0.732,0.01904,0.99218,0.18945,28.38
$IMU,26860.107,0.305,0.000,-0.854,0.01464,0.99316,0.19042,28.38
$MAG,26860.108,-0.147,-0.517,-0.534,27.5
$IMU,26860.109,1.464,-0.061,-0.488,0.01025,0.99316,0.19042,28.38
$IMU,26860.111,2.441,-0.122,0.122,0.01123,0.98925,0.18945,28.38
$IMU,26860.114,3.479,0.000,0.549,0.01269,0.99365,0.18847,28.38
$IMU,26860.116,4.577,-0.305,0.488,0.01611,0.98974,0.18701,28.38
$MAG,26860.118,-0.154,-0.526,-0.540,27.6
$IMU,26860.118,5.432,-0.305,0.122,0.02050,0.99707,0.18896,28.38
$IMU,26860.121,6.408,-0.244,-0.488,0.02246,0.99755,0.18896,28.38
$IMU,26860.123,7.324,-0.183,-0.732,0.02050,0.99853,0.18603,28.41
$IMU,26860.125,8.300,-0.183,-0.610,0.01757,0.99511,0.18554,28.41
$MAG,26860.128,-0.144,-0.522,-0.535,27.5
$IMU,26860.128,9.216,-0.183,-0.305,0.01562,0.99414,0.18945,28.41
$IMU,26860.130,10.192,-0.183,0.061,0.01953,0.99218,0.18701,28.41
$IMU,26860.132,11.230,-0.305,0.061,0.02197,0.99414,0.18652,28.41
$IMU,26860.135,12.084,-0.244,-0.244,0.02636,0.99267,0.18701,28.41
$BARO,26860.137,86868.28,28.54
$IMU,26860.137,12.939,-0.183,-0.671,0.02246,0.99267,0.18359,28.41
$MAG,26860.139,-0.148,-0.514,-0.535,27.3
$IMU,26860.140,13.793,0.000,-0.915,0.01660,0.99414,0.18164,28.41
$IMU,26860.142,14.831,-0.183,-0.793,0.01513,0.99316,0.18115,28.42
$IMU,26860.144,15.808,-0.305,-0.610,0.01220,0.99316,0.18261,28.42
$IMU,26860.147,16.723,-0.427,-0.305,0.01904,0.99511,0.18164,28.42
$MAG,26860.149,-0.145,-0.519,-0.529,27.6
$IMU,26860.149,17.761,-0.366,-0.183,0.02050,0.99804,0.18066,28.42
$IMU,26860.151,18.615,-0.366,-0.305,0.02099,0.99853,0.17968,28.42
$IMU,26860.154,19.409,-0.244,-0.732,0.02539,0.99853,0.17968,28.42
$IMU,26860.156,20.507,-0.366,-1.037,0.02001,0.99902,0.17626,28.42
$IMU,26860.158,21.484,-0.610,-1.098,0.02197,0.99414,0.17578,28.42
$MAG,26860.159,-0.147,-0.520,-0.532,27.3
$IMU,26860.161,22.338,-0.427,-0.915,0.01513,0.99365,0.17529,28.40
$IMU,26860.163,23.254,-0.427,-0.610,0.01464,0.99316,0.17285,28.40
$IMU,26860.165,24.230,-0.488,-0.488,0.01611,0.99462,0.17480,28.40
$IMU,26860.168,25.146,-0.366,-0.549,0.01562,0.99511,0.17480,28.40
$MAG,26860.169,-0.145,-0.517,-0.535,27.6
$IMU,26860.170,26.062,-0.427,-0.793,0.01953,0.99707,0.17333,28.40
$IMU,26860.172,27.038,-0.488,-1.037,0.01953,0.99560,0.17187,28.40
$IMU,26860.175,27.954,-0.549,-1.159,0.01562,1.00000,0.16699,28.40
$IMU,26860.177,28.381,-0.305,-1.220,0.01757,1.00732,0.15136,28.40
$MAG,26860.179,-0.150,-0.519,-0.523,27.6
$IMU,26860.179,27.893,-0.244,-1.281,0.02001,1.01123,0.13037,28.41
$IMU,26860.182,26.855,-0.244,-1.525,0.03173,1.02050,0.12060,28.41
$IMU,26860.184,25.390,-0.122,-2.380,0.03710,1.02783,0.11865,28.41
$VBAT,26860.185,4.130
$IMU,26860.186,23.742,-0.122,-3.662,0.03515,1.01806,0.11865,28.41
$MAG,26860.189,-0.148,-0.520,-0.526,27.5
$IMU,26860.189,22.399,-0.122,-4.455,0.02783,1.01171,0.11621,28.41
$IMU,26860.191,21.057,-0.122,-4.455,0.01562,1.00781,0.11962,28.41
$IMU,26860.193,19.958,0.000,-3.356,0.00488,1.01074,0.12304,28.41
$IMU,26860.196,19.165,-0.183,-2.075,0.00048,1.00732,0.11865,28.41
$IMU,26860.198,18.249,-0.244,-1.281,0.00439,1.00732,0.11523,28.39
$MAG,26860.199,-0.136,-0.520,-0.526,27.5
$IMU,26860.201,17.089,-0.061,-1.159,0.01367,1.00634,0.11572,28.39
$IMU,26860.203,15.930,-0.122,-1.770,0.01464,1.01513,0.11474,28.39
$IMU,26860.205,14.526,-0.061,-2.380,0.01513,1.02001,0.11523,28.39
$IMU,26860.208,13.061,0.000,-2.563,0.01708,1.01806,0.11279,28.39
$MAG,26860.209,-0.145,-0.523,-0.529,27.5
$IMU,26860.210,11.779,0.000,-2.258,0.01660,1.01953,0.10937,28.39
$IMU,26860.212,10.375,-0.183,-1.464,0.01416,1.01855,0.10986,28.39
$IMU,26860.215,8.789,-0.122,-0.610,0.02001,1.01904,0.10644,28.39
$IMU,26860.217,7.019,-0.122,-0.244,0.02343,1.01318,0.10498,28.40
$IMU,26860.219,5.310,-0.183,-0.427,0.02441,1.00927,0.10205,28.40
$MAG,26860.219,-0.142,-0.526,-0.519,27.3
$IMU,26860.222,3.356,-0.061,-0.976,0.02197,1.01074,0.09814,28.40
$IMU,26860.224,1.464,0.061,-1.403,0.01416,1.00927,0.09667,28.40
$IMU,26860.226,-0.305,0.061,-1.281,0.00585,1.01025,0.09960,28.40
$MAG,26860.229,-0.138,-0.528,-0.523,27.6
$IMU,26860.229,-2.014,0.061,-0.610,0.00537,1.00439,0.10302,28.40
$IMU,26860.231,-3.601,-0.122,0.427,0.00537,1.01074,0.10546,28.40
$IMU,26860.233,-5.249,-0.061,1.098,0.00683,1.01318,0.10498,28.40
$IMU,26860.236,-6.713,-0.183,1.403,0.01416,1.01416,0.10302,28.41
$BARO,26860.238,86864.52,28.53
$IMU,26860.238,-8.300,-0.183,1.159,0.01953,1.01660,0.10791,28.41
$MAG,26860.239,-0.138,-0.519,-0.523,27.3
$IMU,26860.240,-10.009,0.000,0.732,0.01660,1.01367,0.10839,28.41
$IMU,26860.243,-11.352,-0.183,0.549,0.01708,1.01074,0.11132,28.41
$IMU,26860.245,-12.878,0.000,0.732,0.01416,1.00830,0.11035,28.41
$IMU,26860.247,-14.099,0.000,1.342,0.01171,1.00537,0.11425,28.41
$MAG,26860.249,-0.153,-0.520,-0.520,27.5
$IMU,26860.250,-15.319,-0.122,2.014,0.01220,1.00585,0.11865,28.41
$IMU,26860.252,-16.479,-0.183,2.380,0.01611,1.00585,0.12060,28.41
$IMU,26860.254,-17.700,-0.244,2.441,0.01464,1.00878,0.11962,28.39
$IMU,26860.257,-19.042,-0.122,2.197,0.01660,1.00976,0.11914,28.39
$IMU,26860.259,-20.263,0.000,2.014,0.01611,1.00830,0.12304,28.39
$MAG,26860.260,-0.144,-0.517,-0.526,27.3
$IMU,26860.262,-21.484,-0.183,2.075,0.01171,1.00878,0.12304,28.39
$IMU,26860.264,-22.705,-0.244,2.563,0.00878,1.00927,0.12011,28.39
$IMU,26860.266,-23.986,0.000,3.234,0.00585,1.00732,0.12402,28.39
$IMU,26860.269,-25.146,-0.244,3.845,0.01513,1.00927,0.12158,28.39
$MAG,26860.270,-0.145,-0.522,-0.528,27.6
$IMU,26860.271,-26.611,0.122,3.967,0.01953,1.01660,0.12744,28.39
$IMU,26860.273,-27.343,0.183,3.234,0.03320,1.02246,0.14355,28.40
$IMU,26860.276,-27.343,0.061,1.403,0.04052,1.02099,0.15576,28.40
$IMU,26860.278,-26.550,0.244,-0.305,0.04296,1.00927,0.17041,28.40
$MAG,26860.280,-0.142,-0.526,-0.537,27.5
$IMU,26860.280,-25.512,0.427,-1.037,0.02783,1.01123,0.17480,28.40
$IMU,26860.283,-24.475,0.244,-0.732,0.01611,1.00341,0.17675,28.40
$IMU,26860.285,-23.254,0.183,0.427,0.01123,1.00146,0.17529,28.40
$IMU,26860.287,-22.216,0.366,1.403,0.01464,0.99951,0.17529,28.40
$MAG,26860.290,-0.148,-0.522,-0.540,27.3
$IMU,26860.290,-21.301,0.122,1.464,0.01708,0.99316,0.17675,28.40
$IMU,26860.292,-20.202,0.122,0.854,0.02343,0.99511,0.17822,28.36
$IMU,26860.294,-19.409,0.305,-0.122,0.02490,0.99267,0.17822,28.36
$IMU,26860.297,-18.554,0.183,-0.915,0.02246,0.99169,0.17675,28.36
$IMU,26860.299,-17.578,0.305,-0.793,0.01416,0.99365,0.17919,28.36
$MAG,26860.300,-0.139,-0.523,-0.532,27.5
$IMU,26860.301,-16.601,0.305,-0.122,0.01855,0.99365,0.17871,28.36
$IMU,26860.304,-15.625,0.122,0.610,0.02099,0.99560,0.17724,28.36
$IMU,26860.306,-14.648,0.183,0.915,0.02734,0.99414,0.17919,28.36
$IMU,26860.308,-13.610,0.122,0.671,0.02880,0.99365,0.18408,28.36
$MAG,26860.310,-0.139,-0.511,-0.537,27.5
$IMU,26860.311,-12.695,0.244,-0.183,0.02978,0.99218,0.18066,28.38
$IMU,26860.313,-11.779,0.305,-0.915,0.02099,0.99072,0.17968,28.38
$IMU,26860.315,-10.742,0.305,-1.159,0.01416,0.99218,0.18359,28.38
$IMU,26860.318,-9.704,0.183,-0.793,0.00878,0.98974,0.18261,28.38
$MAG,26860.320,-0.142,-0.523,-0.540,27.3
$IMU,26860.320,-8.605,0.061,0.061,0.01025,0.98974,0.18457,28.38
$IMU,26860.323,-7.629,0.000,0.671,0.01025,0.99267,0.18359,28.38
$IMU,26860.325,-6.591,-0.122,0.671,0.01855,0.99707,0.18603,28.38
$IMU,26860.327,-5.554,-0.122,0.183,0.02392,0.99560,0.18505,28.38
$IMU,26860.330,-4.638,0.061,-0.427,0.02197,0.99267,0.18750,28.37
$MAG,26860.330,-0.148,-0.519,-0.535,27.5
$IMU,26860.332,-3.784,0.061,-0.854,0.02148,0.99462,0.18945,28.37
$IMU,26860.334,-2.807,0.000,-0.671,0.01660,0.99414,0.18798,28.37
$IMU,26860.337,-1.831,0.061,-0.122,0.01513,0.99658,0.18554,28.37
$BARO,26860.339,86865.72,28.53
$IMU,26860.339,-0.915,-0.122,0.305,0.01611,0.99658,0.18652,28.37
$MAG,26860.340,-0.135,-0.528,-0.540,27.6
$IMU,26860.341,-0.122,0.061,0.488,0.01904,0.99755,0.18847,28.37
$IMU,26860.344,0.793,0.000,0.183,0.02197,0.99609,0.18750,28.37
$IMU,26860.346,1.831,-0.183,-0.366,0.02392,0.99853,0.18847,28.37
$IMU,26860.348,2.685,0.000,-0.854,0.02050,0.99511,0.18750,28.37
$MAG,26860.350,-0.139,-0.523,-0.537,27.5
$IMU,26860.351,3.784,-0.122,-0.732,0.01416,0.99658,0.18505,28.37
$IMU,26860.353,4.760,-0.183,-0.244,0.01025,0.99072,0.18505,28.37
$IMU,26860.355,5.859,-0.122,0.244,0.01025,0.99414,0.18457,28.37
$IMU,26860.358,6.896,-0.183,0.549,0.01464,0.99316,0.18310,28.37
$MAG,26860.360,-0.148,-0.522,-0.535,27.5
$IMU,26860.360,7.812,-0.305,0.366,0.02343,0.99511,0.18261,28.37
$IMU,26860.362,8.789,-0.305,-0.244,0.02539,0.99560,0.18359,28.37
$IMU,26860.365,9.826,-0.244,-0.610,0.02294,0.99755,0.18408,28.37
$IMU,26860.367,10.742,-0.244,-0.793,0.02197,0.99755,0.18066,28.42
$IMU,26860.369,11.657,-0.244,-0.549,0.01904,0.99462,0.17919,28.42
$MAG,26860.371,-0.141,-0.517,-0.534,27.6
$IMU,26860.372,12.512,-0.061,-0.183,0.01806,0.99462,0.18261,28.42
$IMU,26860.374,13.549,-0.366,0.000,0.02099,0.99218,0.18310,28.42
$IMU,26860.376,14.465,-0.244,-0.061,0.02294,0.99707,0.18261,28.42
$IMU,26860.379,15.441,-0.244,-0.366,0.02148,0.99511,0.17822,28.42
$MAG,26860.381,-0.139,-0.525,-0.541,27.5
$IMU,26860.381,16.357,-0.244,-0.793,0.02001,0.99462,0.17822,28.42
$IMU,26860.384,17.272,-0.305,-0.976,0.01904,0.99462,0.17724,28.42
$IMU,26860.386,18.310,-0.244,-0.854,0.01562,0.99121,0.17626,28.41
$IMU,26860.388,19.287,-0.366,-0.671,0.01464,0.99365,0.17529,28.41
$MAG,26860.391,-0.150,-0.519,-0.540,27.5
$IMU,26860.391,20.263,-0.366,-0.427,0.01757,0.99609,0.17382,28.41
$IMU,26860.393,21.240,-0.488,-0.305,0.02294,0.99804,0.17480,28.41
$IMU,26860.395,22.216,-0.366,-0.549,0.02294,0.99902,0.17285,28.41
$IMU,26860.398,23.193,-0.427,-0.976,0.02050,0.99951,0.17138,28.41
$IMU,26860.400,24.169,-0.427,-1.098,0.02099,0.99755,0.16796,28.41
$MAG,26860.401,-0.144,-0.523,-0.538,27.5
$IMU,26860.402,25.085,-0.488,-1.220,0.01953,0.99951,0.16796,28.41
$IMU,26860.405,25.756,-0.549,-1.220,0.01757,1.00195,0.15673,28.39
$IMU,26860.407,25.329,-0.305,-1.037,0.01708,1.00585,0.13769,28.39
$IMU,26860.409,24.353,-0.427,-1.281,0.02685,1.01318,0.12792,28.39
$MAG,26860.411,-0.139,-0.523,-0.528,27.6
$IMU,26860.412,22.766,-0.061,-2.014,0.03076,1.02343,0.11914,28.39
$IMU,26860.414,21.301,-0.427,-3.173,0.03271,1.01708,0.12011,28.39
$IMU,26860.416,19.836,-0.183,-3.967,0.02734,1.01171,0.11865,28.39
$IMU,26860.419,18.554,-0.122,-4.028,0.01757,1.01123,0.12011,28.39
$MAG,26860.421,-0.145,-0.511,-0.522,27.5
$IMU,26860.421,17.456,0.061,-3.173,0.00634,1.01416,0.12255,28.39
$IMU,26860.423,16.540,-0.305,-1.953,0.00195,1.00878,0.12304,28.40
$IMU,26860.426,15.441,-0.061,-1.159,0.00244,1.01025,0.11962,28.40
$IMU,26860.428,14.343,-0.244,-1.037,0.01074,1.00683,0.11816,28.40
$IMU,26860.430,13.244,-0.183,-1.342,0.01367,1.01757,0.11523,28.40
$MAG,26860.431,-0.142,-0.517,-0.529,27.6
$IMU,26860.433,11.901,0.000,-1.953,0.01464,1.01562,0.11425,28.40
$IMU,26860.435,10.681,0.000,-2.197,0.01464,1.01464,0.11767,28.40
$IMU,26860.437,9.460,-0.061,-1.953,0.01464,1.01416,0.11425,28.40
$IMU,26860.440,8.178,-0.061,-1.159,0.01513,1.01708,0.11425,28.40
$BARO,26860.441,86862.70,28.53
$MAG,26860.441,-0.145,-0.519,-0.519,27.6
$IMU,26860.442,6.896,-0.122,-0.488,0.01855,1.01318,0.11376,28.37
$IMU,26860.445,5.432,-0.122,-0.122,0.02148,1.01318,0.11279,28.37
$IMU,26860.447,3.906,-0.061,-0.244,0.02490,1.00830,0.11083,28.37
$IMU,26860.449,2.319,-0.061,-0.671,0.02197,1.00781,0.10986,28.37
$MAG,26860.451,-0.150,-0.522,-0.526,27.5
$IMU,26860.452,0.793,-0.061,-1.098,0.01904,1.00341,0.11230,28.37
$IMU,26860.454,-0.793,0.183,-1.037,0.01318,1.00732,0.10839,28.37
$IMU,26860.456,-2.136,-0.122,-0.488,0.00878,1.00244,0.11132,28.37
$IMU,26860.459,-3.540,-0.122,0.183,0.00878,1.00585,0.11279,28.37
$MAG,26860.461,-0.144,-0.522,-0.523,27.5
$IMU,26860.461,-4.943,-0.122,0.976,0.01074,1.01123,0.11181,28.42
$IMU,26860.463,-6.164,-0.305,1.281,0.01269,1.01464,0.11328,28.42
$IMU,26860.466,-7.507,-0.122,1.037,0.01611,1.01220,0.11425,28.42
$IMU,26860.468,-8.911,0.061,0.732,0.01904,1.01367,0.11572,28.42
$IMU,26860.470,-10.070,0.122,0.549,0.01562,1.01074,0.11523,28.42
$MAG,26860.471,-0.151,-0.522,-0.526,27.5
$IMU,26860.473,-11.291,-0.061,0.671,0.01416,1.00634,0.11718,28.42
$IMU,26860.475,-12.329,-0.061,1.220,0.01269,1.00732,0.11572,28.42
$IMU,26860.477,-13.488,-0.122,1.770,0.01318,1.00732,0.11962,28.42
$IMU,26860.480,-14.770,-0.122,2.136,0.01513,1.00732,0.12255,28.39
$IMU,26860.482,-16.052,-0.061,2.258,0.01611,1.01074,0.12255,28.39
$MAG,26860.482,-0.142,-0.520,-0.522,27.5
$IMU,26860.484,-17.395,0.000,2.014,0.01513,1.01220,0.12255,28.39
$HUM,26860.487,34.6,28.9
$IMU,26860.487,-18.554,-0.122,1.831,0.01611,1.01318,0.12255,28.39
$IMU,26860.489,-19.653,-0.244,1.892,0.01074,1.00878,0.11962,28.39
$IMU,26860.491,-20.935,-0.244,2.319,0.00927,1.01025,0.12646,28.39
$MAG,26860.492,-0.141,-0.520,-0.529,27.6
$IMU,26860.494,-22.277,0.000,2.929,0.01123,1.00927,0.12646,28.39
$IMU,26860.496,-23.559,0.061,3.479,0.01464,1.01318,0.12597,28.39
$IMU,26860.498,-24.536,0.122,3.173,0.02783,1.02636,0.13671,28.42
$IMU,26860.501,-24.536,0.000,1.831,0.03515,1.02197,0.15429,28.42
$MAG,26860.502,-0.142,-0.522,-0.528,27.6
$IMU,26860.503,-23.986,0.000,0.183,0.03759,1.01416,0.16992,28.42
$IMU,26860.505,-23.071,0.305,-0.915,0.03125,1.00927,0.17480,28.42
$IMU,26860.508,-22.155,0.427,-0.915,0.01855,1.00097,0.17529,28.42
$IMU,26860.510,-21.057,0.488,0.000,0.01025,0.99951,0.17626,28.42
$MAG,26860.512,-0.142,-0.514,-0.534,27.6
$IMU,26860.513,-19.836,0.000,0.976,0.01220,0.99511,0.17578,28.42
$IMU,26860.515,-18.859,0.122,1.403,0.01953,0.99511,0.17382,28.42
$IMU,26860.517,-17.822,0.122,0.915,0.02246,0.99267,0.17382,28.41
$IMU,26860.520,-16.967,0.305,0.061,0.02099,0.99365,0.17675,28.41
$MAG,26860.522,-0.135,-0.519,-0.528,27.5
$IMU,26860.522,-16.052,0.244,-0.671,0.02001,0.98779,0.17822,28.41
$IMU,26860.524,-15.075,0.244,-0.854,0.01660,0.98974,0.17822,28.41
$IMU,26860.527,-14.038,0.183,-0.488,0.01562,0.99072,0.17822,28.41
$IMU,26860.529,-13.000,-0.061,0.244,0.02001,0.99218,0.18017,28.41
$IMU,26860.531,-12.023,0.061,0.854,0.02587,0.99316,0.17724,28.41
$MAG,26860.532,-0.144,-0.519,-0.535,27.3
$IMU,26860.534,-11.169,0.244,0.732,0.03027,0.98925,0.18066,28.41
$IMU,26860.536,-10.253,0.122,0.000,0.03076,0.99267,0.18066,28.42
$IMU,26860.538,-9.277,0.183,-0.671,0.02685,0.99414,0.17968,28.42
$IMU,26860.541,-8.300,0.244,-1.220,0.01806,0.99462,0.18261,28.42
$BARO,26860.542,86867.99,28.53
$MAG,26860.542,-0.144,-0.525,-0.532,27.5
$IMU,26860.543,-7.202,0.183,-0.976,0.01025,0.99121,0.18115,28.42
$IMU,26860.545,-6.225,0.122,-0.305,0.00927,0.98876,0.18115,28.42
$IMU,26860.548,-5.187,0.122,0.366,0.01025,0.99121,0.18457,28.42
$IMU,26860.550,-4.089,-0.183,0.671,0.01611,0.99365,0.18212,28.42
$MAG,26860.552,-0.142,-0.522,-0.538,27.6
$IMU,26860.552,-3.051,-0.244,0.183,0.01611,0.99755,0.18212,28.42
$IMU,26860.555,-2.075,-0.183,-0.366,0.01757,0.99365,0.17871,28.43
$IMU,26860.557,-1.159,-0.122,-0.793,0.01904,0.99560,0.18359,28.43
$IMU,26860.559,-0.183,0.061,-0.793,0.01562,0.99218,0.18359,28.43
$MAG,26860.562,-0.142,-0.519,-0.537,27.5
$IMU,26860.562,0.854,-0.122,-0.305,0.01464,0.99609,0.18212,28.43
$IMU,26860.564,1.770,-0.244,0.244,0.01611,1.00000,0.18261,28.43
$IMU,26860.566,2.624,-0.183,0.427,0.01953,0.99853,0.18554,28.43
$IMU,26860.569,3.601,-0.244,0.183,0.01953,1.00097,0.18554,28.43
$IMU,26860.571,4.455,-0.122,-0.244,0.01953,0.99951,0.18310,28.43
$MAG,26860.572,-0.141,-0.519,-0.532,27.6
$IMU,26860.574,5.432,-0.183,-0.671,0.01757,0.99707,0.18066,28.44
$IMU,26860.576,6.408,-0.122,-0.732,0.01123,0.99316,0.18017,28.44
$IMU,26860.578,7.507,-0.061,-0.488,0.01123,0.99365,0.17968,28.44
$IMU,26860.581,8.544,-0.244,0.000,0.01123,0.99218,0.18066,28.44
$IMU,26860.583,9.521,-0.305,0.366,0.01757,0.99511,0.17822,28.44
$MAG,26860.582,-0.156,-0.516,-0.541,27.5
$IMU,26860.585,10.498,-0.122,0.305,0.01953,0.99218,0.18115,28.44
$IMU,26860.588,11.535,-0.305,-0.122,0.02392,0.99902,0.18164,28.44
$IMU,26860.590,12.573,-0.244,-0.671,0.02734,1.00048,0.17871,28.44
$IMU,26860.592,13.610,-0.488,-0.915,0.02343,0.99560,0.17675,28.42
$MAG,26860.593,-0.138,-0.517,-0.535,27.3
$IMU,26860.595,14.526,-0.305,-0.732,0.01806,0.99365,0.17773,28.42
$IMU,26860.597,15.502,-0.183,-0.366,0.01855,0.99414,0.17578,28.42
$IMU,26860.599,16.418,-0.305,-0.061,0.02099,0.99560,0.17675,28.42
$IMU,26860.602,17.517,-0.427,-0.122,0.02099,0.99560,0.17382,28.42
$MAG,26860.603,-0.136,-0.520,-0.534,27.5
$IMU,26860.604,18.371,-0.183,-0.427,0.02001,0.99316,0.17333,28.42
$IMU,26860.606,19.348,-0.305,-0.793,0.01904,0.99218,0.17089,28.42
$IMU,26860.609,20.324,-0.305,-1.037,0.01855,0.99658,0.17333,28.42
$IMU,26860.611,21.362,-0.427,-1.037,0.01611,0.99267,0.16992,28.39
$MAG,26860.613,-0.145,-0.514,-0.538,27.6
$IMU,26860.613,22.338,-0.549,-0.793,0.01855,0.99902,0.16943,28.39
$IMU,26860.616,23.010,-0.488,-0.610,0.01806,1.00732,0.15869,28.39
$IMU,26860.618,23.010,-0.366,-0.671,0.02343,1.00927,0.14208,28.39
$IMU,26860.620,22.094,-0.366,-1.098,0.02880,1.01562,0.12890,28.39
$MAG,26860.623,-0.144,-0.517,-0.526,27.3
$IMU,26860.623,20.812,-0.183,-1.708,0.03417,1.02343,0.12451,28.39
$IMU,26860.625,19.287,-0.122,-2.746,0.03271,1.02197,0.11816,28.39
$IMU,26860.627,17.822,-0.122,-3.540,0.02441,1.01513,0.11718,28.39
$IMU,26860.630,16.540,0.000,-3.540,0.01855,1.01269,0.12109,28.38
$IMU,26860.632,15.380,-0.061,-2.990,0.01025,1.01025,0.12158,28.38
$MAG,26860.633,-0.141,-0.514,-0.523,27.5
$IMU,26860.635,14.282,0.000,-1.892,0.00341,1.00683,0.12207,28.38
$IMU,26860.637,13.305,-0.061,-1.098,0.00683,1.00585,0.12304,28.38
$IMU,26860.639,12.268,-0.061,-0.854,0.00878,1.00927,0.11914,28.38
$IMU,26860.642,11.047,-0.183,-1.159,0.01123,1.01171,0.11962,28.38
$MAG,26860.643,-0.151,-0.523,-0.528,27.6
$BARO,26860.644,86865.52,28.53
$IMU,26860.644,9.887,-0.244,-1.647,0.01367,1.01562,0.12109,28.38
$IMU,26860.646,8.666,-0.183,-1.708,0.01562,1.01806,0.11962,28.38
$IMU,26860.649,7.446,-0.122,-1.586,0.01562,1.01757,0.12011,28.39
$IMU,26860.651,6.225,0.000,-1.037,0.01562,1.01611,0.11865,28.39
$MAG,26860.653,-0.148,-0.522,-0.531,27.6
$IMU,26860.653,5.065,-0.061,-0.305,0.01660,1.01464,0.11767,28.39
$IMU,26860.656,3.845,-0.305,0.000,0.02392,1.01464,0.11621,28.39
$IMU,26860.658,2.441,-0.122,-0.122,0.02392,1.00878,0.11572,28.39
$IMU,26860.660,0.915,0.061,-0.549,0.02197,1.00878,0.11279,28.39
$MAG,26860.663,-0.141,-0.529,-0.532,27.6
$IMU,26860.663,-0.366,-0.183,-0.854,0.01660,1.00781,0.11669,28.39
$IMU,26860.665,-1.647,-0.061,-0.915,0.01074,1.00634,0.11816,28.39
$IMU,26860.667,-2.868,0.000,-0.366,0.00634,1.00537,0.11816,28.44
$IMU,26860.670,-4.028,-0.122,0.305,0.00244,1.00781,0.11572,28.44
$IMU,26860.672,-5.249,-0.183,0.976,0.00732,1.01025,0.11865,28.44
$MAG,26860.673,-0.147,-0.519,-0.529,27.6
$IMU,26860.674,-6.408,-0.122,1.281,0.01269,1.01074,0.11865,28.44
$IMU,26860.677,-7.690,-0.061,1.098,0.01611,1.00927,0.11718,28.44
$IMU,26860.679,-8.850,-0.183,0.793,0.02050,1.01025,0.11816,28.44
$IMU,26860.681,-10.131,-0.061,0.610,0.01757,1.00781,0.11962,28.44
$MAG,26860.683,-0.147,-0.526,-0.525,27.6
$IMU,26860.684,-11.474,0.061,0.854,0.01562,1.00927,0.11962,28.44
$IMU,26860.686,-12.573,0.061,1.159,0.01367,1.00439,0.11962,28.39
$IMU,26860.688,-13.732,-0.061,1.831,0.01171,1.00927,0.12304,28.39
$IMU,26860.691,-14.892,-0.061,2.136,0.01367,1.00439,0.11962,28.39
$MAG,26860.693,-0.147,-0.526,-0.534,27.6
$IMU,26860.693,-16.113,-0.183,2.258,0.01513,1.00585,0.12109,28.39
$IMU,26860.696,-17.272,-0.061,2.136,0.01611,1.01123,0.12207,28.39
$IMU,26860.698,-18.737,-0.122,2.014,0.01318,1.01562,0.12353,28.39
$IMU,26860.700,-20.141,0.000,2.075,0.01074,1.00830,0.12109,28.39
$MAG,26860.703,-0.145,-0.517,-0.535,27.6
$IMU,26860.703,-21.362,0.000,2.441,0.01464,1.01562,0.12792,28.39
$IMU,26860.705,-22.155,0.183,2.380,0.02294,1.01904,0.14160,28.41
$IMU,26860.707,-22.216,0.183,1.586,0.03222,1.01953,0.15527,28.41
$IMU,26860.710,-21.545,0.122,0.610,0.03271,1.00878,0.16894,28.41
$IMU,26860.712,-20.690,0.122,-0.183,0.03369,1.00683,0.17431,28.41
$MAG,26860.714,-0.150,-0.523,-0.534,27.6
$IMU,26860.714,-19.714,0.183,-0.549,0.02148,1.00292,0.17480,28.41
$IMU,26860.717,-18.676,0.244,-0.183,0.01367,1.00097,0.17480,28.41
$IMU,26860.719,-17.578,0.183,0.366,0.01464,0.99755,0.17675,28.41
$IMU,26860.721,-16.357,-0.061,0.732,0.01708,0.99560,0.17236,28.41
$MAG,26860.724,-0.156,-0.514,-0.534,27.6
$IMU,26860.724,-15.380,0.000,0.610,0.02001,0.99511,0.17578,28.36
$IMU,26860.726,-14.343,0.000,0.183,0.01953,0.99511,0.17626,28.36
$IMU,26860.728,-13.427,0.122,-0.244,0.02148,0.99804,0.17871,28.36
$IMU,26860.731,-12.512,0.183,-0.610,0.01904,0.99267,0.17871,28.36
$IMU,26860.733,-11.535,0.183,-0.427,0.01806,0.98974,0.17773,28.36
$MAG,26860.734,-0.142,-0.523,-0.529,27.5
$IMU,26860.735,-10.559,0.061,0.000,0.01904,0.99169,0.18017,28.36
$IMU,26860.738,-9.521,0.061,0.366,0.02246,0.98828,0.17773,28.36
$IMU,26860.740,-8.605,0.122,0.427,0.02441,0.99121,0.17822,28.36
$IMU,26860.742,-7.690,0.122,0.061,0.02734,0.99316,0.17626,28.41
$MAG,26860.744,-0.147,-0.514,-0.528,27.6
$BARO,26860.745,86862.31,28.53
$IMU,26860.745,-6.652,0.122,-0.488,0.02587,0.99316,0.17773,28.41
$IMU,26860.747,-5.676,0.122,-0.793,0.01757,0.99560,0.17822,28.41
$IMU,26860.749,-4.638,0.122,-0.854,0.01416,0.99316,0.18115,28.41
$IMU,26860.752,-3.479,-0.061,-0.488,0.01074,0.99365,0.17968,28.41
$MAG,26860.754,-0.148,-0.529,-0.529,27.6
$IMU,26860.754,-2.441,-0.122,0.000,0.01123,0.99121,0.17822,28.41
$IMU,26860.757,-1.342,-0.183,0.244,0.01269,0.99365,0.18066,28.41
$IMU,26860.759,-0.244,-0.244,0.244,0.01562,0.99316,0.18115,28.41
$IMU,26860.761,0.671,-0.244,-0.122,0.02050,0.99462,0.18115,28.40
$MAG,26860.764,-0.144,-0.516,-0.537,27.6
$IMU,26860.764,1.586,-0.183,-0.488,0.02099,0.99511,0.18115,28.40
$IMU,26860.766,2.563,-0.122,-0.671,0.01757,0.99755,0.18457,28.40
$IMU,26860.768,3.479,-0.183,-0.427,0.01953,0.99511,0.18115,28.40
$IMU,26860.771,4.333,-0.061,-0.061,0.01464,0.99951,0.18066,28.40
$IMU,26860.773,5.310,-0.061,0.122,0.01757,1.00195,0.18115,28.40
$MAG,26860.774,-0.145,-0.517,-0.532,27.6
$IMU,26860.775,6.347,-0.183,0.000,0.02099,1.00439,0.18017,28.40
$IMU,26860.778,7.202,0.061,-0.244,0.01904,0.99804,0.17919,28.40
$IMU,26860.780,8.178,0.061,-0.549,0.01367,0.99853,0.17724,28.43
$IMU,26860.782,9.277,-0.183,-0.549,0.01708,0.99560,0.17919,28.43
$MAG,26860.784,-0.145,-0.520,-0.531,27.3
$IMU,26860.785,10.314,-0.244,-0.427,0.01269,0.99560,0.17773,28.43
$IMU,26860.787,11.352,-0.305,-0.122,0.01123,0.99560,0.17480,28.43
$IMU,26860.789,12.451,-0.183,0.000,0.01611,0.99609,0.17431,28.43
$IMU,26860.792,13.488,-0.366,0.061,0.01513,0.99707,0.17529,28.43
$MAG,26860.794,-0.135,-0.522,-0.535,27.5
$IMU,26860.794,14.465,-0.305,-0.244,0.02148,0.99853,0.17529,28.43
$IMU,26860.796,15.441,-0.366,-0.549,0.02392,0.99462,0.17480,28.43
$IMU,26860.799,16.540,-0.427,-0.671,0.02246,0.99707,0.17138,28.41
$IMU,26860.801,17.395,-0.366,-0.732,0.02099,0.99804,0.17431,28.41
$IMU,26860.803,18.310,-0.244,-0.610,0.02294,0.99462,0.17382,28.41
$MAG,26860.804,-0.139,-0.523,-0.531,27.6
$IMU,26860.806,19.409,-0.366,-0.427,0.02246,0.99853,0.17187,28.41
$IMU,26860.808,20.324,-0.305,-0.427,0.02294,1.00000,0.16259,28.41
$IMU,26860.810,20.568,-0.305,-0.610,0.02490,0.99902,0.15136,28.41
$IMU,26860.813,20.202,-0.305,-1.037,0.02148,1.00244,0.13574,28.41
$MAG,26860.814,-0.136,-0.525,-0.532,27.6
$IMU,26860.815,19.287,-0.366,-1.464,0.02148,1.00830,0.12500,28.41
$IMU,26860.818,17.761,-0.061,-1.831,0.02734,1.01611,0.12109,28.39
$IMU,26860.820,16.296,0.000,-2.258,0.02685,1.01708,0.12207,28.39
$IMU,26860.822,15.136,-0.244,-2.624,0.01953,1.01220,0.12353,28.39
$MAG,26860.825,-0.147,-0.523,-0.531,27.6
$IMU,26860.825,13.854,-0.183,-2.624,0.02197,1.01513,0.12158,28.39
$IMU,26860.827,12.573,-0.122,-2.136,0.01660,1.01611,0.12207,28.39
$IMU,26860.829,11.535,-0.061,-1.586,0.00830,1.00830,0.12109,28.39
$IMU,26860.832,10.375,0.000,-1.159,0.01123,1.01171,0.12255,28.39
$IMU,26860.834,9.216,-0.061,-1.098,0.01171,1.01269,0.12011,28.39
$MAG,26860.835,-0.144,-0.522,-0.531,27.5
$IMU,26860.836,8.056,-0.183,-1.220,0.01220,1.01367,0.12011,28.41
$IMU,26860.839,7.080,-0.427,-1.159,0.01074,1.01562,0.11914,28.41
$IMU,26860.841,5.737,0.000,-1.159,0.01269,1.01367,0.11962,28.41
$IMU,26860.843,4.455,0.061,-0.854,0.01269,1.01464,0.12109,28.41
$MAG,26860.845,-0.145,-0.522,-0.528,27.6
$IMU,26860.846,3.356,-0.122,-0.549,0.01464,1.01660,0.11914,28.41
$BARO,26860.847,86870.96,28.53
$IMU,26860.848,2.258,-0.122,-0.244,0.02001,1.01416,0.12011,28.41
$IMU,26860.850,0.915,-0.122,-0.122,0.02050,1.01269,0.12207,28.41
$IMU,26860.853,-0.366,0.000,-0.122,0.01953,1.00976,0.12011,28.41
$MAG,26860.855,-0.151,-0.531,-0.522,27.5
$IMU,26860.855,-1.647,-0.061,-0.183,0.01855,1.00585,0.11767,28.40
$IMU,26860.857,-3.051,0.122,-0.305,0.01708,1.00732,0.11718,28.40
$IMU,26860.860,-4.211,0.000,-0.122,0.01269,1.00683,0.11865,28.40
$IMU,26860.862,-5.432,-0.122,0.244,0.00781,1.00488,0.11816,28.40
$IMU,26860.864,-6.652,-0.122,0.610,0.00878,1.00439,0.12060,28.40
$MAG,26860.865,-0.148,-0.519,-0.528,27.5
$IMU,26860.867,-7.812,-0.061,0.915,0.00781,1.00878,0.11962,28.40
$IMU,26860.869,-8.911,-0.183,1.159,0.01464,1.00976,0.11865,28.40
$IMU,26860.871,-10.192,0.000,1.220,0.01562,1.00976,0.11962,28.40
$IMU,26860.874,-11.413,-0.061,1.159,0.01562,1.00585,0.12158,28.44
$MAG,26860.875,-0.147,-0.528,-0.529,27.6
$IMU,26860.876,-12.634,-0.061,1.220,0.01806,1.00537,0.12011,28.44
$IMU,26860.878,-13.793,-0.183,1.403,0.01464,1.00488,0.12109,28.44
$IMU,26860.881,-15.136,0.061,1.831,0.01318,1.00488,0.12500,28.44
$IMU,26860.883,-16.540,0.183,2.136,0.01611,1.00390,0.12109,28.44
$MAG,26860.885,-0.145,-0.519,-0.519,27.6
$IMU,26860.886,-17.822,0.000,2.441,0.01660,1.00830,0.12304,28.44
$IMU,26860.888,-18.981,-0.061,2.441,0.02001,1.01855,0.13134,28.44
$IMU,26860.890,-19.714,0.061,1.586,0.02978,1.02001,0.14550,28.44
$IMU,26860.893,-19.836,0.061,0.549,0.03027,1.01367,0.15673,28.43
$MAG,26860.895,-0.154,-0.519,-0.537,27.6
$IMU,26860.895,-19.348,0.244,-0.244,0.02587,1.01025,0.16503,28.43
$IMU,26860.897,-18.493,0.244,-0.488,0.02197,1.00634,0.17431,28.43
$IMU,26860.900,-17.395,0.183,0.061,0.01513,1.00537,0.17285,28.43
$IMU,26860.902,-16.296,0.061,0.671,0.01611,1.00097,0.17529,28.43
$IMU,26860.904,-15.258,0.000,0.915,0.01757,0.99902,0.17382,28.43
$MAG,26860.905,-0.141,-0.516,-0.529,27.5
$IMU,26860.907,-14.282,0.061,0.671,0.02343,0.99755,0.17431,28.43
$IMU,26860.909,-13.305,0.000,0.122,0.02539,0.99707,0.17773,28.43
$IMU,26860.911,-12.268,0.122,-0.427,0.01904,0.99609,0.17578,28.42
$IMU,26860.914,-11.291,0.061,-0.610,0.01904,0.99658,0.17724,28.42
$MAG,26860.915,-0.145,-0.525,-0.540,27.5
$IMU,26860.916,-10.253,0.061,-0.366,0.01220,0.99609,0.17724,28.42
$IMU,26860.918,-9.277,0.122,0.000,0.01318,0.99365,0.17431,28.42
$IMU,26860.921,-8.239,0.122,0.366,0.01562,0.99072,0.17285,28.42
$IMU,26860.923,-7.202,0.122,0.366,0.02197,0.99316,0.17871,28.42
$MAG,26860.925,-0.147,-0.522,-0.531,27.6
$IMU,26860.925,-6.103,0.183,0.000,0.02050,0.99121,0.17871,28.42
$IMU,26860.928,-5.187,0.000,-0.427,0.02197,0.99267,0.17871,28.42
$IMU,26860.930,-4.272,0.061,-0.732,0.01806,0.99365,0.17822,28.44
$IMU,26860.932,-3.112,-0.122,-0.671,0.01708,0.99267,0.17626,28.44
$IMU,26860.935,-2.075,-0.061,-0.427,0.01416,0.99121,0.17822,28.44
$MAG,26860.936,-0.150,-0.523,-0.540,27.6
$IMU,26860.937,-1.098,0.061,0.000,0.01269,0.99169,0.17773,28.44
$IMU,26860.939,-0.122,-0.061,0.122,0.01611,0.99414,0.17773,28.44
$IMU,26860.942,1.098,-0.244,0.061,0.01953,0.99462,0.17626,28.44
$IMU,26860.944,2.014,-0.183,-0.244,0.01708,0.99609,0.17285,28.44
$MAG,26860.946,-0.147,-0.516,-0.537,27.6
$IMU,26860.947,3.051,-0.061,-0.488,0.01855,0.99365,0.17871,28.44
$BARO,26860.948,86859.53,28.53
$IMU,26860.949,4.028,0.000,-0.610,0.01660,0.99316,0.17968,28.43
$IMU,26860.951,5.004,-0.183,-0.366,0.01513,0.99267,0.17626,28.43
$IMU,26860.954,5.920,-0.122,-0.061,0.01806,0.99462,0.17724,28.43
$MAG,26860.956,-0.147,-0.514,-0.532,27.6
$IMU,26860.956,6.896,-0.122,0.122,0.01806,0.99804,0.17773,28.43
$IMU,26860.958,7.873,-0.183,0.000,0.01953,1.00146,0.17822,28.43
$IMU,26860.961,8.728,0.000,-0.305,0.02050,1.00488,0.17724,28.43
$IMU,26860.963,9.826,-0.244,-0.610,0.02099,1.00097,0.17919,28.43
$IMU,26860.965,10.925,-0.244,-0.793,0.01904,0.99853,0.17578,28.43
$MAG,26860.966,-0.151,-0.511,-0.528,27.5
$IMU,26860.968,12.023,-0.305,-0.549,0.01513,0.99902,0.17480,28.40
$IMU,26860.970,13.061,-0.305,-0.244,0.01464,0.99560,0.17333,28.40
$IMU,26860.972,14.160,-0.305,0.000,0.01660,0.99511,0.17382,28.40
$IMU,26860.975,15.197,-0.305,-0.061,0.01757,0.99755,0.17333,28.40
$MAG,26860.976,-0.145,-0.523,-0.531,27.6
$IMU,26860.977,16.235,-0.305,-0.305,0.02246,0.99755,0.17431,28.40
$IMU,26860.979,17.150,-0.244,-0.610,0.02294,0.99755,0.17187,28.40
$IMU,26860.982,18.005,-0.183,-0.793,0.02343,1.00097,0.16601,28.40
$IMU,26860.984,18.188,-0.061,-0.915,0.02392,1.00097,0.15380,28.40
$MAG,26860.986,-0.145,-0.526,-0.529,27.6
$IMU,26860.986,18.066,-0.183,-0.854,0.02148,1.00585,0.13818,28.44
$IMU,26860.989,17.211,-0.244,-0.854,0.01806,1.00927,0.12939,28.44
$IMU,26860.991,15.930,-0.183,-1.098,0.02490,1.01416,0.12451,28.44
$IMU,26860.993,14.526,-0.183,-1.586,0.02783,1.01269,0.11914,28.44
$MAG,26860.996,-0.136,-0.511,-0.529,27.5
$IMU,26860.996,13.183,-0.183,-2.197,0.02734,1.00878,0.12109,28.44
$IMU,26860.998,11.718,-0.061,-2.441,0.02050,1.01025,0.12304,28.44
$IMU,26861.000,10.498,-0.061,-2.258,0.01074,1.00976,0.12109,28.44
$IMU,26861.003,9.460,-0.244,-1.647,0.01074,1.01123,0.12255,28.44
$IMU,26861.005,8.361,-0.183,-0.915,0.00927,1.00537,0.12402,28.45
$MAG,26861.006,-0.139,-0.522,-0.525,27.5
$IMU,26861.008,7.324,-0.122,-0.366,0.00732,1.01269,0.12255,28.45
$IMU,26861.010,6.103,-0.122,-0.244,0.01464,1.01611,0.12060,28.45
$IMU,26861.012,4.821,-0.061,-0.549,0.02001,1.01806,0.12207,28.45
$IMU,26861.015,3.540,-0.061,-0.854,0.01855,1.01562,0.12060,28.45
$MAG,26861.016,-0.147,-0.523,-0.528,27.3
$IMU,26861.017,2.319,-0.061,-0.976,0.01611,1.01757,0.12207,28.45
$IMU,26861.019,1.037,0.061,-0.732,0.01708,1.01708,0.12207,28.45
$IMU,26861.022,-0.244,0.000,-0.183,0.01757,1.01464,0.12158,28.45
$IMU,26861.024,-1.525,0.122,0.305,0.01611,1.01074,0.12109,28.42
$MAG,26861.026,-0.145,-0.523,-0.520,27.6
$IMU,26861.026,-2.746,0.061,0.549,0.02099,1.01220,0.12207,28.42
$IMU,26861.029,-4.028,0.000,0.427,0.01855,1.00976,0.12109,28.42
$IMU,26861.031,-5.310,0.000,0.183,0.01904,1.00585,0.12060,28.42
$IMU,26861.033,-6.591,-0.061,0.000,0.01513,1.00683,0.12109,28.42
$MAG,26861.036,-0.142,-0.516,-0.529,27.5
$IMU,26861.036,-7.873,-0.122,0.183,0.01220,1.00976,0.12402,28.42
$IMU,26861.038,-9.155,-0.061,0.671,0.00683,1.00585,0.12158,28.42
$IMU,26861.040,-10.253,-0.183,1.159,0.00927,1.00683,0.12304,28.42
$IMU,26861.043,-11.413,-0.305,1.708,0.01416,1.01220,0.12207,28.43
$IMU,26861.045,-12.695,-0.183,1.892,0.01562,1.01074,0.12207,28.43
$MAG,26861.047,-0.151,-0.525,-0.534,27.6
$IMU,26861.047,-14.038,-0.061,1.770,0.01855,1.00732,0.12011,28.43
$BARO,26861.050,86869.62,28.53
$IMU,26861.050,-15.380,-0.061,1.586,0.01806,1.00781,0.12255,28.43
$IMU,26861.052,-16.601,0.061,1.403,0.01904,1.01367,0.13085,28.43
$IMU,26861.054,-17.333,0.061,1.037,0.02832,1.01123,0.13818,28.43
$MAG,26861.057,-0.151,-0.519,-0.532,27.5
$IMU,26861.057,-17.578,0.183,0.549,0.02880,1.00390,0.15039,28.43
$IMU,26861.059,-17.089,0.122,0.244,0.02441,1.00292,0.16210,28.43
$IMU,26861.061,-16.418,0.061,0.122,0.02050,1.00195,0.17236,28.42
$IMU,26861.064,-15.380,0.183,0.183,0.02148,1.00683,0.17431,28.42
$IMU,26861.066,-14.221,0.122,0.244,0.02050,0.99853,0.17333,28.42
$MAG,26861.067,-0.153,-0.516,-0.537,27.6
$IMU,26861.069,-13.244,0.122,0.244,0.01757,0.99609,0.17578,28.42
$IMU,26861.071,-12.390,0.000,0.122,0.01562,0.99707,0.17871,28.42
$IMU,26861.073,-11.352,0.061,0.000,0.01855,0.99707,0.17480,28.42
$IMU,26861.076,-10.437,0.061,-0.061,0.01562,0.99365,0.17382,28.42
$MAG,26861.077,-0.139,-0.516,-0.531,27.5
$IMU,26861.078,-9.521,0.000,-0.061,0.01953,0.99609,0.17724,28.42
$IMU,26861.080,-8.422,0.061,0.000,0.02050,0.99707,0.17675,28.45
$IMU,26861.083,-7.385,0.061,0.000,0.02246,0.99609,0.17675,28.45
$IMU,26861.085,-6.347,0.000,0.000,0.01855,0.99365,0.18017,28.45
$MAG,26861.087,-0.150,-0.513,-0.534,27.6
$IMU,26861.087,-5.310,0.000,0.000,0.02099,0.99804,0.17626,28.45
$IMU,26861.090,-4.272,0.000,-0.183,0.01855,0.99511,0.17724,28.45
$IMU,26861.092,-3.234,0.000,-0.305,0.01757,0.99316,0.17578,28.45
$IMU,26861.094,-2.197,0.000,-0.305,0.01416,0.99267,0.17626,28.45
$MAG,26861.097,-0.135,-0.522,-0.534,27.6
$IMU,26861.097,-1.098,0.000,-0.244,0.01464,0.99658,0.17529,28.45
$IMU,26861.099,0.000,-0.183,-0.244,0.01562,0.99804,0.17529,28.45
$IMU,26861.101,0.976,0.000,-0.122,0.01318,0.99414,0.17529,28.45
$IMU,26861.104,2.136,-0.244,-0.061,0.01660,0.99414,0.17626,28.45
$IMU,26861.106,3.112,-0.244,-0.122,0.01464,0.99414,0.17626,28.45
$MAG,26861.107,-0.145,-0.517,-0.534,27.5
$IMU,26861.108,4.150,-0.244,-0.122,0.02197,0.99267,0.17333,28.45
$IMU,26861.111,5.126,-0.244,-0.244,0.02001,0.99072,0.17480,28.45
$IMU,26861.113,6.103,-0.305,-0.244,0.01953,0.99267,0.17578,28.45
$IMU,26861.115,7.080,-0.183,-0.183,0.02099,0.99365,0.17626,28.45
$MAG,26861.117,-0.147,-0.523,-0.532,27.6
$IMU,26861.118,7.995,0.000,-0.244,0.01806,0.99511,0.17626,28.44
$IMU,26861.120,8.972,-0.122,-0.305,0.01806,1.00097,0.17431,28.44
$IMU,26861.122,10.009,-0.183,-0.244,0.01855,0.99804,0.17431,28.44
$IMU,26861.125,10.864,0.061,-0.305,0.01367,0.99755,0.17626,28.44
$MAG,26861.127,-0.144,-0.526,-0.531,27.6
$IMU,26861.127,12.023,-0.244,-0.488,0.01562,1.00097,0.17578,28.44
$IMU,26861.130,13.061,-0.244,-0.427,0.01660,0.99511,0.17529,28.44
$IMU,26861.132,14.099,-0.305,-0.427,0.01660,0.99755,0.17236,28.44
$IMU,26861.134,15.197,-0.244,-0.427,0.01611,0.99755,0.16748,28.44
$MAG,26861.137,-0.147,-0.523,-0.531,27.6
$IMU,26861.137,15.930,-0.305,-0.610,0.01611,1.00146,0.15917,28.43
$IMU,26861.139,16.052,-0.183,-0.671,0.01904,1.00585,0.15185,28.43
$IMU,26861.141,15.808,-0.305,-0.732,0.02197,1.00683,0.13964,28.43
$IMU,26861.144,15.075,-0.549,-0.915,0.01904,1.01269,0.12744,28.43
$IMU,26861.146,13.793,-0.366,-1.037,0.02294,1.01513,0.12304,28.43
$MAG,26861.147,-0.148,-0.528,-0.532,27.6
$IMU,26861.148,12.329,-0.122,-1.281,0.02539,1.01416,0.12207,28.43
$BARO,26861.151,86873.08,28.52
$IMU,26861.151,10.864,0.000,-1.647,0.02392,1.01318,0.12109,28.43
$IMU,26861.153,9.582,0.061,-1.831,0.01953,1.01416,0.12060,28.43
$IMU,26861.155,8.239,-0.061,-1.647,0.01464,1.00976,0.12158,28.47
$MAG,26861.158,-0.139,-0.520,-0.528,27.6
$IMU,26861.158,6.958,-0.061,-1.281,0.01025,1.00683,0.12304,28.47
$IMU,26861.160,5.798,-0.122,-0.732,0.00830,1.00781,0.12060,28.47
$IMU,26861.162,4.638,-0.061,-0.366,0.01220,1.00732,0.12207,28.47
$IMU,26861.165,3.417,-0.061,-0.183,0.01318,1.01074,0.12304,28.47
$IMU,26861.167,2.319,0.000,-0.305,0.01220,1.01416,0.12011,28.47
$MAG,26861.168,-0.148,-0.519,-0.526,27.7
$IMU,26861.169,1.037,0.000,-0.305,0.01562,1.01416,0.12011,28.47
$IMU,26861.172,-0.183,-0.244,-0.305,0.01708,1.01611,0.12207,28.47
$IMU,26861.174,-1.464,-0.122,-0.122,0.01855,1.01562,0.12304,28.45
$IMU,26861.176,-2.746,-0.061,0.122,0.02050,1.01953,0.12304,28.45
$MAG,26861.178,-0.142,-0.531,-0.531,27.5
$IMU,26861.179,-4.089,-0.122,0.488,0.01806,1.01367,0.12304,28.45
$IMU,26861.181,-5.432,0.061,0.671,0.01708,1.00976,0.12402,28.45
$IMU,26861.183,-6.591,-0.183,0.671,0.01757,1.00830,0.12207,28.45
$IMU,26861.186,-8.056,-0.061,0.610,0.01660,1.00781,0.12060,28.45
$MAG,26861.188,-0.156,-0.520,-0.525,27.6
$IMU,26861.188,-9.460,0.000,0.732,0.01220,1.00537,0.12255,28.45
$VBAT,26861.188,4.127
$IMU,26861.191,-10.742,0.000,0.793,0.01171,1.00683,0.12255,28.45
$IMU,26861.193,-12.023,0.000,1.159,0.01074,1.00732,0.12353,28.44
$IMU,26861.195,-13.305,-0.122,1.525,0.01171,1.01367,0.12792,28.44
$MAG,26861.198,-0.138,-0.523,-0.537,27.5
$IMU,26861.198,-14.465,0.061,1.708,0.01953,1.01318,0.12939,28.44
$IMU,26861.200,-15.075,0.000,1.098,0.02539,1.01513,0.13818,28.44
$IMU,26861.202,-15.319,0.244,0.366,0.02880,1.01269,0.15039,28.44
$IMU,26861.205,-15.075,0.244,-0.244,0.02685,1.00585,0.15966,28.44
$IMU,26861.207,-14.343,0.122,-0.427,0.02050,1.00146,0.16748,28.44
$MAG,26861.208,-0.139,-0.520,-0.531,27.6
$IMU,26861.209,-13.305,0.183,-0.122,0.01806,0.99902,0.17333,28.44
$IMU,26861.212,-12.207,0.061,0.366,0.01855,0.99707,0.17480,28.47
$IMU,26861.214,-11.230,0.000,0.427,0.01757,0.99365,0.17480,28.47
$IMU,26861.216,-10.314,0.061,0.305,0.02148,0.99609,0.17333,28.47
$MAG,26861.218,-0.144,-0.529,-0.523,27.5
$IMU,26861.219,-9.338,0.122,-0.122,0.01757,0.99609,0.17529,28.47
$IMU,26861.221,-8.300,0.122,-0.488,0.01806,0.99365,0.17431,28.47
$IMU,26861.223,-7.324,0.061,-0.549,0.01123,0.99414,0.17382,28.47
$IMU,26861.226,-6.286,0.000,-0.305,0.01513,0.99267,0.17529,28.47
$MAG,26861.228,-0.147,-0.529,-0.531,27.5
$IMU,26861.228,-5.371,0.000,0.000,0.01562,0.99316,0.17480,28.47
$IMU,26861.230,-4.272,0.000,0.244,0.01562,0.99169,0.17529,28.45
$IMU,26861.233,-3.295,-0.122,0.305,0.01513,0.99218,0.17675,28.45
$IMU,26861.235,-2.258,-0.061,-0.122,0.01904,0.99218,0.17431,28.45
$IMU,26861.237,-1.403,0.000,-0.488,0.01953,0.99267,0.17626,28.45
$MAG,26861.238,-0.136,-0.523,-0.541,27.5
$IMU,26861.240,-0.244,-0.122,-0.671,0.01562,0.99023,0.17578,28.45
$IMU,26861.242,0.854,-0.122,-0.671,0.01562,0.99169,0.17285,28.45
$IMU,26861.244,1.831,0.000,-0.305,0.01416,0.99072,0.17431,28.45
$IMU,26861.247,3.051,-0.122,0.122,0.01513,0.99853,0.17333,28.45
$MAG,26861.248,-0.147,-0.519,-0.529,27.6
$IMU,26861.249,4.089,-0.122,0.183,0.01513,0.99853,0.17480,28.45
$IMU,26861.252,5.187,-0.305,0.000,0.01806,0.99609,0.17578,28.45
$BARO,26861.253,86856.77,28.52
$IMU,26861.254,6.225,-0.061,-0.244,0.01708,0.99365,0.17333,28.45
$IMU,26861.256,7.202,-0.183,-0.427,0.01708,0.99121,0.17041,28.45
$MAG,26861.258,-0.142,-0.520,-0.528,27.6
$IMU,26861.259,8.239,-0.183,-0.549,0.01660,0.99462,0.17431,28.45
$IMU,26861.261,9.094,-0.183,-0.366,0.01708,0.99414,0.17187,28.45
$IMU,26861.263,10.253,-0.366,-0.122,0.01708,0.99609,0.17285,28.45
$IMU,26861.266,11.230,-0.366,0.000,0.02099,0.99755,0.17187,28.45
$MAG,26861.268,-0.148,-0.517,-0.532,27.3
$IMU,26861.268,12.145,-0.244,-0.061,0.02392,0.99755,0.17236,28.48
$IMU,26861.270,12.939,-0.183,-0.427,0.02343,1.00292,0.16601,28.48
$IMU,26861.273,13.366,-0.183,-0.793,0.02197,1.00244,0.15869,28.48
$IMU,26861.275,13.366,-0.061,-0.976,0.01660,1.00537,0.14648,28.48
$IMU,26861.277,13.122,-0.366,-0.854,0.01513,1.00830,0.13769,28.48
$MAG,26861.279,-0.150,-0.517,-0.531,27.6
$IMU,26861.280,12.329,-0.366,-0.610,0.01269,1.00683,0.13037,28.48
$IMU,26861.282,11.047,-0.122,-0.488,0.01562,1.00927,0.12207,28.48
$IMU,26861.284,9.887,-0.183,-0.610,0.02099,1.01220,0.12255,28.48
$IMU,26861.287,8.483,-0.183,-0.976,0.02636,1.01513,0.12353,28.44
$MAG,26861.289,-0.138,-0.517,-0.526,27.6
$IMU,26861.289,7.202,-0.122,-1.342,0.01855,1.01318,0.12207,28.44
$IMU,26861.291,5.920,-0.183,-1.464,0.01806,1.01269,0.12060,28.44
$IMU,26861.294,4.577,-0.183,-1.159,0.01367,1.01220,0.12402,28.44
$IMU,26861.296,3.417,-0.061,-0.549,0.01123,1.01464,0.12158,28.44
$IMU,26861.298,2.319,-0.122,0.061,0.01220,1.01171,0.12255,28.44
$MAG,26861.299,-0.139,-0.520,-0.525,27.6
$IMU,26861.301,1.098,-0.244,0.244,0.01464,1.01367,0.12451,28.44
$IMU,26861.303,-0.244,-0.183,0.183,0.01416,1.01367,0.12207,28.44
$IMU,26861.305,-1.770,0.183,0.000,0.01757,1.01464,0.12353,28.44
$IMU,26861.308,-3.051,-0.061,-0.122,0.01660,1.01318,0.12402,28.44
$MAG,26861.309,-0.150,-0.525,-0.535,27.7
$IMU,26861.310,-4.272,-0.061,0.000,0.01611,1.01171,0.12158,28.44
$IMU,26861.312,-5.554,-0.183,0.427,0.01416,1.00927,0.12353,28.44
$IMU,26861.315,-6.835,-0.305,0.793,0.01708,1.01367,0.12304,28.44
$IMU,26861.317,-8.300,0.122,1.159,0.01806,1.00878,0.12255,28.44
$MAG,26861.319,-0.144,-0.526,-0.540,27.6
$IMU,26861.320,-9.704,0.122,1.220,0.02099,1.00585,0.12158,28.44
$IMU,26861.322,-10.925,0.061,1.159,0.02392,1.01269,0.12695,28.44
$IMU,26861.324,-11.962,-0.061,0.610,0.02099,1.01318,0.13281,28.43
$IMU,26861.327,-12.756,-0.061,0.061,0.02441,1.00927,0.14160,28.43
$MAG,26861.329,-0.148,-0.520,-0.535,27.5
$IMU,26861.329,-13.122,0.183,-0.244,0.02099,1.00390,0.14843,28.43
$IMU,26861.331,-12.939,0.244,-0.183,0.02001,1.00390,0.15771,28.43
$IMU,26861.334,-12.329,0.122,0.122,0.01757,0.99902,0.16552,28.43
$IMU,26861.336,-11.230,-0.122,0.427,0.01806,1.00195,0.16943,28.43
$IMU,26861.338,-10.131,-0.183,0.366,0.02343,1.00000,0.17333,28.43
$MAG,26861.339,-0.141,-0.520,-0.528,27.5
$IMU,26861.341,-9.155,0.000,0.000,0.02197,0.99462,0.17333,28.43
$IMU,26861.343,-8.239,0.061,-0.488,0.01757,0.99609,0.17431,28.46
$IMU,26861.345,-7.263,0.061,-0.610,0.02001,0.99218,0.17333,28.46
$IMU,26861.348,-6.408,0.122,-0.549,0.01562,0.99316,0.17431,28.46
$MAG,26861.349,-0.139,-0.520,-0.532,27.5
$IMU,26861.350,-5.310,-0.122,-0.244,0.01708,0.99169,0.17333,28.46
$IMU,26861.352,-4.333,-0.122,0.000,0.01513,0.99560,0.17382,28.46
$BARO,26861.354,86866.69,28.52
$IMU,26861.355,-3.295,-0.061,0.122,0.02148,0.99609,0.17431,28.46
$IMU,26861.357,-2.319,0.000,0.000,0.01806,0.99560,0.17431,28.46
$MAG,26861.359,-0.145,-0.523,-0.538,27.6
$IMU,26861.359,-1.403,0.061,-0.305,0.02099,0.99316,0.17431,28.46
$IMU,26861.362,-0.305,-0.061,-0.610,0.01660,0.99365,0.17480,28.48
$IMU,26861.364,0.671,-0.122,-0.610,0.01464,0.99511,0.17138,28.48
$IMU,26861.366,1.770,-0.061,-0.366,0.01318,0.99218,0.17333,28.48
$MAG,26861.369,-0.144,-0.522,-0.546,27.6
$IMU,26861.369,2.685,0.000,-0.061,0.00927,0.99218,0.17382,28.48
$IMU,26861.371,3.906,-0.244,0.000,0.01318,0.99511,0.17626,28.48
$IMU,26861.373,5.065,-0.366,0.000,0.01708,0.99804,0.17138,28.48
$IMU,26861.376,6.103,-0.122,-0.183,0.01855,0.99707,0.17138,28.48
$IMU,26861.378,7.202,-0.366,-0.549,0.02050,0.99560,0.17285,28.48
$MAG,26861.379,-0.144,-0.519,-0.526,27.6
$IMU,26861.381,8.178,-0.305,-0.488,0.01904,0.99658,0.17285,28.42
$IMU,26861.383,9.155,-0.122,-0.366,0.01513,0.99560,0.17041,28.42
$IMU,26861.385,10.253,-0.244,-0.183,0.01953,0.99804,0.16650,28.42
$IMU,26861.388,10.803,-0.244,-0.122,0.02148,0.99658,0.15966,28.42
$MAG,26861.390,-0.144,-0.523,-0.525,27.6
$IMU,26861.390,11.047,0.000,-0.122,0.02246,1.00341,0.15429,28.42
$IMU,26861.392,11.047,-0.122,-0.427,0.02246,1.00341,0.14892,28.42
$IMU,26861.395,10.498,-0.061,-0.610,0.02099,1.00537,0.14160,28.42
$IMU,26861.397,9.887,-0.122,-0.732,0.01708,1.00830,0.13427,28.42
$IMU,26861.399,8.850,-0.122,-0.671,0.01806,1.00927,0.12988,28.44
$MAG,26861.400,-0.139,-0.523,-0.528,27.6
$IMU,26861.402,7.751,-0.305,-0.549,0.01367,1.01171,0.12353,28.44
$IMU,26861.404,6.469,-0.183,-0.305,0.01513,1.01464,0.12402,28.44
$IMU,26861.406,5.065,-0.061,-0.427,0.01708,1.01416,0.11962,28.44
$IMU,26861.409,3.784,-0.122,-0.610,0.01660,1.01074,0.12207,28.44
$MAG,26861.410,-0.147,-0.526,-0.532,27.6
$IMU,26861.411,2.502,-0.122,-0.671,0.01660,1.01367,0.12353,28.44
$IMU,26861.413,1.342,-0.427,-0.427,0.01171,1.01220,0.12158,28.44
$IMU,26861.416,0.000,-0.244,-0.122,0.01025,1.01318,0.12304,28.44
$IMU,26861.418,-1.220,-0.183,0.244,0.01416,1.00927,0.12304,28.42
$MAG,26861.420,-0.151,-0.523,-0.526,27.5
$IMU,26861.420,-2.563,-0.122,0.549,0.01269,1.01220,0.12255,28.42
$IMU,26861.423,-3.845,-0.183,0.671,0.01855,1.01318,0.12207,28.42
$IMU,26861.425,-5.126,-0.183,0.671,0.01953,1.01367,0.12402,28.42
$IMU,26861.427,-6.530,-0.122,0.610,0.02001,1.01660,0.12451,28.42
$IMU,26861.430,-7.934,0.000,0.488,0.02050,1.01367,0.12792,28.42
$MAG,26861.430,-0.138,-0.528,-0.531,27.3
$IMU,26861.432,-9.033,-0.061,0.305,0.02441,1.01416,0.13378,28.42
$IMU,26861.434,-9.887,0.183,0.183,0.02392,1.01171,0.13720,28.42
$IMU,26861.437,-10.253,0.061,0.183,0.02343,1.00683,0.14794,28.45
$IMU,26861.439,-10.375,0.000,0.122,0.02148,1.00195,0.15136,28.45
$MAG,26861.440,-0.151,-0.523,-0.531,27.6
$IMU,26861.442,-10.131,0.183,0.183,0.02197,1.00390,0.15917,28.45
$IMU,26861.444,-9.582,0.122,0.000,0.02148,1.00048,0.16406,28.45
$IMU,26861.446,-8.911,0.305,-0.183,0.02148,1.00244,0.16650,28.45
$IMU,26861.449,-7.873,0.183,-0.305,0.01904,0.99658,0.17187,28.45
$MAG,26861.450,-0.141,-0.522,-0.537,27.6
$IMU,26861.451,-6.713,0.000,-0.366,0.01464,0.99804,0.17285,28.45
$IMU,26861.453,-5.798,0.183,-0.366,0.01464,0.99707,0.17480,28.45
$BARO,26861.456,86864.43,28.53
$IMU,26861.456,-4.760,0.061,-0.366,0.01416,0.99462,0.17138,28.42
$IMU,26861.458,-3.662,0.061,-0.244,0.01708,0.99267,0.17333,28.42
$MAG,26861.460,-0.142,-0.520,-0.538,27.5
$IMU,26861.460,-2.441,0.000,-0.244,0.02050,0.99267,0.17480,28.42
$IMU,26861.463,-1.525,-0.122,-0.305,0.02099,0.99023,0.17236,28.42
$IMU,26861.465,-0.549,0.000,-0.366,0.01953,0.99023,0.17236,28.42
$IMU,26861.467,0.366,-0.061,-0.488,0.01904,0.99218,0.17138,28.42
$MAG,26861.470,-0.147,-0.517,-0.538,27.6
$IMU,26861.470,1.342,-0.122,-0.488,0.01708,0.99072,0.17431,28.42
$IMU,26861.472,2.441,-0.061,-0.488,0.01855,0.99511,0.17041,28.42
$IMU,26861.474,3.356,-0.061,-0.366,0.01318,0.99560,0.17285,28.43
$IMU,26861.477,4.394,-0.122,-0.366,0.01562,0.99560,0.16943,28.43
$IMU,26861.479,5.615,-0.366,-0.305,0.01269,0.99462,0.17187,28.43
$MAG,26861.480,-0.135,-0.514,-0.534,27.6
$IMU,26861.481,6.469,-0.122,-0.305,0.01220,0.99755,0.17089,28.43
$IMU,26861.484,7.202,-0.122,-0.305,0.01611,0.99658,0.16552,28.43
$IMU,26861.486,7.934,-0.122,-0.427,0.01367,0.99755,0.16113,28.43
$IMU,26861.488,8.300,-0.122,-0.305,0.01416,0.99902,0.15478,28.43
$MAG,26861.490,-0.147,-0.520,-0.526,27.5
$IMU,26861.491,8.483,-0.305,-0.366,0.01562,1.00537,0.14941,28.43
$IMU,26861.493,8.300,-0.488,-0.366,0.01562,1.00634,0.14501,28.41
$IMU,26861.495,7.690,-0.183,-0.244,0.01464,1.00537,0.13916,28.41
$IMU,26861.498,6.835,-0.061,-0.122,0.01708,1.00927,0.13720,28.41
$IMU,26861.500,6.042,-0.183,-0.244,0.01757,1.00878,0.13134,28.41
$MAG,26861.501,-0.150,-0.513,-0.531,27.6
$HUM,26861.502,34.4,28.9
$IMU,26861.503,5.065,-0.305,-0.183,0.01562,1.00927,0.12890,28.41
$IMU,26861.505,3.784,-0.183,-0.183,0.01611,1.01464,0.12402,28.41
$IMU,26861.507,2.441,-0.244,-0.061,0.01660,1.01757,0.12451,28.41
$IMU,26861.510,1.220,-0.183,0.061,0.01757,1.01611,0.12744,28.41
$MAG,26861.511,-0.142,-0.523,-0.528,27.6
$IMU,26861.512,-0.183,-0.061,0.183,0.01611,1.01367,0.12548,28.43
$IMU,26861.514,-1.403,-0.122,0.305,0.01757,1.01416,0.12451,28.43
$IMU,26861.517,-2.563,-0.244,0.366,0.01562,1.01171,0.12353,28.43
$IMU,26861.519,-3.723,-0.122,0.427,0.01855,1.01171,0.12695,28.43
$MAG,26861.521,-0.144,-0.525,-0.531,27.6
$IMU,26861.521,-4.699,-0.061,0.366,0.02197,1.01513,0.13232,28.43
$IMU,26861.524,-5.676,0.122,0.305,0.02099,1.01660,0.13281,28.43
$IMU,26861.526,-6.347,0.000,0.244,0.02050,1.00927,0.13867,28.43
$IMU,26861.528,-6.896,-0.061,0.183,0.02099,1.01074,0.14306,28.43
$IMU,26861.531,-7.141,0.000,0.183,0.02050,1.01074,0.14746,28.44
$MAG,26861.531,-0.142,-0.526,-0.537,27.5
$IMU,26861.533,-7.202,0.122,0.122,0.01904,1.00976,0.15185,28.44
$IMU,26861.535,-7.019,0.061,0.061,0.02294,1.00830,0.15576,28.44
$IMU,26861.538,-6.713,0.183,-0.122,0.02441,1.00000,0.15820,28.44
$IMU,26861.540,-6.164,0.061,-0.183,0.02246,0.99755,0.16552,28.44
$MAG,26861.541,-0.144,-0.528,-0.522,27.6
$IMU,26861.542,-5.493,0.000,-0.305,0.02001,0.99707,0.16894,28.44
$IMU,26861.545,-4.638,0.061,-0.366,0.01904,0.99609,0.16650,28.44
$IMU,26861.547,-3.784,0.122,-0.427,0.02197,0.99658,0.17285,28.44
$IMU,26861.549,-2.746,-0.061,-0.366,0.02050,0.99365,0.17089,28.46
$MAG,26861.551,-0.144,-0.514,-0.532,27.5
$IMU,26861.552,-1.708,-0.061,-0.488,0.01953,0.99267,0.17138,28.46
$IMU,26861.554,-0.671,-0.061,-0.488,0.01708,0.99511,0.17236,28.46
$IMU,26861.556,0.366,-0.183,-0.549,0.01708,0.99218,0.17333,28.46
$BARO,26861.557,86869.52,28.52
$IMU,26861.559,1.159,0.000,-0.671,0.02099,0.98974,0.16943,28.46
$MAG,26861.561,-0.138,-0.513,-0.531,27.6
$IMU,26861.561,2.075,0.000,-0.549,0.01318,0.99023,0.16748,28.46
$IMU,26861.564,2.990,0.000,-0.549,0.01708,0.99072,0.16992,28.46
$IMU,26861.566,3.784,-0.305,-0.488,0.01708,0.99560,0.16552,28.46
$IMU,26861.568,4.333,-0.244,-0.610,0.01708,0.99414,0.16064,28.46
$MAG,26861.571,-0.144,-0.519,-0.531,27.6
$IMU,26861.571,4.821,-0.183,-0.549,0.01562,0.99462,0.15576,28.46
$IMU,26861.573,5.126,-0.183,-0.488,0.01757,0.99511,0.15771,28.46
$IMU,26861.575,5.187,-0.122,-0.427,0.01464,1.00244,0.15283,28.46
$IMU,26861.578,5.065,-0.061,-0.366,0.01416,1.00439,0.14746,28.46
$IMU,26861.580,4.760,0.000,-0.305,0.01416,1.00146,0.14648,28.46
$MAG,26861.581,-0.144,-0.522,-0.529,27.5
$IMU,26861.582,4.455,-0.244,-0.183,0.01269,1.00585,0.14257,28.46
$IMU,26861.585,3.906,-0.122,-0.183,0.01562,1.00781,0.13769,28.46
$IMU,26861.587,3.295,-0.244,-0.061,0.01660,1.00585,0.13769,28.47
$IMU,26861.589,2.502,-0.122,0.000,0.01416,1.01025,0.13671,28.47
$MAG,26861.591,-0.139,-0.522,-0.528,27.6
$IMU,26861.592,1.770,-0.305,0.061,0.01367,1.01171,0.13232,28.47
$IMU,26861.594,0.854,-0.122,0.061,0.01367,1.01416,0.13281,28.47
$IMU,26861.596,-0.122,-0.183,0.122,0.01416,1.01416,0.13476,28.47
$IMU,26861.599,-1.037,-0.061,0.244,0.01562,1.00976,0.13525,28.47
$MAG,26861.601,-0.145,-0.526,-0.529,27.6
$IMU,26861.601,-1.831,-0.061,0.366,0.01660,1.01464,0.13720,28.47
$IMU,26861.603,-2.624,0.061,0.366,0.01757,1.01269,0.14062,28.47
$IMU,26861.606,-3.112,-0.061,0.366,0.01855,1.00976,0.14111,28.45
$IMU,26861.608,-3.540,0.000,0.366,0.02343,1.00927,0.14208,28.45
$IMU,26861.610,-4.211,0.244,0.305,0.01953,1.01025,0.14111,28.45
$MAG,26861.612,-0.141,-0.520,-0.535,27.6
$IMU,26861.613,-4.455,0.244,0.244,0.01757,1.00830,0.14355,28.45
$IMU,26861.615,-4.577,0.122,0.244,0.02197,1.00927,0.14941,28.45
$IMU,26861.617,-4.516,0.000,0.122,0.02490,1.00439,0.15527,28.45
$IMU,26861.620,-4.272,-0.061,0.061,0.02539,1.00341,0.15527,28.45
$MAG,26861.622,-0.147,-0.522,-0.534,27.6
$IMU,26861.622,-3.967,0.061,0.000,0.02587,1.00146,0.15820,28.45
$IMU,26861.625,-3.662,0.244,-0.122,0.02197,0.99853,0.16357,28.46
$IMU,26861.627,-3.112,0.061,-0.183,0.02246,0.99902,0.16162,28.46
$IMU,26861.629,-2.502,0.122,-0.366,0.01855,0.99902,0.16455,28.46
$MAG,26861.632,-0.142,-0.516,-0.531,27.6
$IMU,26861.632,-1.770,-0.183,-0.366,0.02148,0.99853,0.16455,28.46
$IMU,26861.634,-1.037,-0.305,-0.427,0.01904,0.99609,0.16796,28.46
$IMU,26861.636,-0.549,0.183,-0.427,0.01953,0.99658,0.16650,28.46
$IMU,26861.639,0.183,0.000,-0.488,0.01953,0.99609,0.16503,28.46
$IMU,26861.641,0.793,0.061,-0.549,0.01904,0.99707,0.16308,28.46
$MAG,26861.642,-0.141,-0.531,-0.528,27.6
$IMU,26861.643,1.525,-0.061,-0.549,0.01708,0.99609,0.16503,28.47
$IMU,26861.646,2.075,-0.244,-0.610,0.01708,0.99658,0.16113,28.47
$IMU,26861.648,2.380,-0.122,-0.732,0.01904,0.99755,0.16015,28.47
$IMU,26861.650,2.624,0.000,-0.671,0.01367,0.99658,0.15576,28.47
$MAG,26861.652,-0.141,-0.519,-0.525,27.6
$IMU,26861.653,2.868,-0.122,-0.549,0.01367,1.00097,0.15234,28.47
$IMU,26861.655,2.990,-0.183,-0.488,0.01611,1.00244,0.15429,28.47
$IMU,26861.657,2.990,-0.061,-0.427,0.01660,1.00195,0.15283,28.47
$BARO,26861.659,86872.08,28.52
$IMU,26861.660,2.868,-0.183,-0.427,0.01562,1.00000,0.14746,28.47
$MAG,26861.662,-0.148,-0.523,-0.535,27.6
$IMU,26861.662,2.563,-0.122,-0.366,0.01611,1.00341,0.14306,28.48
$IMU,26861.664,2.136,0.061,-0.244,0.01513,1.00195,0.14111,28.48
$IMU,26861.667,1.770,0.000,-0.244,0.01464,1.00488,0.14062,28.48
$IMU,26861.669,1.342,-0.122,-0.122,0.01416,1.00537,0.14111,28.48
$IMU,26861.671,0.854,-0.183,0.000,0.01367,1.00830,0.13867,28.48
$MAG,26861.672,-0.145,-0.517,-0.528,27.6
$IMU,26861.674,0.366,-0.183,0.061,0.01464,1.00830,0.13964,28.48
$IMU,26861.676,-0.244,-0.061,0.061,0.01269,1.00927,0.14013,28.48
$IMU,26861.678,-0.976,0.183,0.061,0.01806,1.00878,0.14160,28.48
$IMU,26861.681,-1.342,0.061,0.122,0.01806,1.00634,0.14306,28.45
$MAG,26861.682,-0.147,-0.526,-0.526,27.6
$IMU,26861.683,-1.770,-0.061,0.183,0.01611,1.00634,0.14404,28.45
$IMU,26861.685,-2.136,-0.183,0.244,0.01513,1.01025,0.14453,28.45
$IMU,26861.688,-2.502,0.061,0.366,0.01611,1.00781,0.14794,28.45
$IMU,26861.690,-2.746,0.000,0.305,0.02050,1.00537,0.14941,28.45
$MAG,26861.692,-0.142,-0.526,-0.538,27.6
$IMU,26861.693,-2.868,0.000,0.305,0.02001,1.00439,0.15039,28.45
$IMU,26861.695,-2.868,0.000,0.244,0.01953,1.00488,0.15283,28.45
$IMU,26861.697,-2.746,-0.122,0.122,0.02099,1.00488,0.15185,28.45
$IMU,26861.700,-2.441,-0.244,0.000,0.01855,1.00341,0.15527,28.42
$MAG,26861.702,-0.147,-0.525,-0.534,27.5
$IMU,26861.702,-2.441,0.061,0.000,0.02001,1.00390,0.15576,28.42
$IMU,26861.704,-2.014,0.000,0.061,0.02197,1.00292,0.15966,28.42
$IMU,26861.707,-1.647,-0.061,0.061,0.02001,1.00244,0.16113,28.42
$IMU,26861.709,-1.220,-0.122,-0.061,0.02148,1.00048,0.16064,28.42
$IMU,26861.711,-0.854,0.000,-0.122,0.02148,0.99902,0.16113,28.42
$MAG,26861.712,-0.144,-0.520,-0.531,27.5
$IMU,26861.714,-0.366,-0.183,-0.244,0.02490,0.99951,0.16064,28.42
$IMU,26861.716,0.061,-0.061,-0.366,0.02001,0.99951,0.16113,28.42
$IMU,26861.718,0.549,0.000,-0.427,0.02001,1.00048,0.16162,28.46
$IMU,26861.721,0.915,-0.244,-0.488,0.02148,1.00146,0.15966,28.46
$MAG,26861.723,-0.145,-0.519,-0.526,27.6
$IMU,26861.723,1.342,-0.305,-0.427,0.01953,1.00195,0.15625,28.46
$IMU,26861.725,1.525,0.000,-0.427,0.01855,0.99902,0.15332,28.46
$IMU,26861.728,1.647,0.061,-0.488,0.02001,1.00000,0.15332,28.46
$IMU,26861.730,1.831,-0.122,-0.549,0.01904,1.00244,0.15332,28.46
$IMU,26861.732,1.892,-0.122,-0.488,0.01708,1.00341,0.15185,28.46
$MAG,26861.733,-0.148,-0.520,-0.523,27.5
$IMU,26861.735,1.831,-0.122,-0.488,0.01562,1.00439,0.14941,28.46
$IMU,26861.737,1.708,-0.244,-0.488,0.01757,1.00439,0.14746,28.43
$IMU,26861.739,1.464,-0.061,-0.366,0.01562,1.00439,0.14599,28.43
$IMU,26861.742,1.098,0.061,-0.305,0.01660,1.00488,0.14550,28.43
$MAG,26861.743,-0.145,-0.528,-0.537,27.6
$IMU,26861.744,0.854,-0.061,-0.366,0.01660,1.00292,0.14648,28.43
$IMU,26861.747,0.671,-0.244,-0.244,0.01562,1.00537,0.14355,28.43
$IMU,26861.749,0.244,-0.061,-0.183,0.01269,1.00732,0.14306,28.43
$IMU,26861.751,-0.183,-0.244,-0.122,0.01464,1.00634,0.14306,28.43
$MAG,26861.753,-0.145,-0.523,-0.532,27.6
$IMU,26861.754,-0.549,-0.061,-0.061,0.01660,1.00683,0.14355,28.43
$IMU,26861.756,-0.793,-0.061,0.000,0.01611,1.00683,0.14746,28.48
$IMU,26861.758,-1.220,-0.061,0.061,0.01611,1.00634,0.14306,28.48
$BARO,26861.760,86874.84,28.53
$IMU,26861.761,-1.464,-0.122,0.061,0.01953,1.00683,0.14648,28.48
$MAG,26861.763,-0.144,-0.520,-0.522,27.6
$IMU,26861.763,-1.708,0.000,0.000,0.01953,1.00488,0.14941,28.48
$IMU,26861.765,-2.075,0.305,0.000,0.01904,1.00537,0.14746,28.48
$IMU,26861.768,-2.014,0.000,0.061,0.01904,1.00390,0.14892,28.48
$IMU,26861.770,-1.892,-0.122,0.061,0.01806,1.00634,0.15332,28.48
$IMU,26861.772,-1.892,-0.183,0.122,0.01757,1.00390,0.15478,28.48
$MAG,26861.773,-0.148,-0.523,-0.534,27.6
$IMU,26861.775,-1.831,-0.061,0.000,0.01904,1.00341,0.15527,28.45
$IMU,26861.777,-1.708,0.000,0.061,0.02099,1.00439,0.15478,28.45
$IMU,26861.779,-1.525,-0.122,0.000,0.01904,1.00146,0.15722,28.45
$IMU,26861.782,-1.220,0.000,-0.122,0.02099,1.00000,0.15820,28.45
$MAG,26861.783,-0.141,-0.526,-0.534,27.6
$IMU,26861.784,-0.976,-0.122,-0.183,0.02050,1.00048,0.15527,28.45
$IMU,26861.786,-0.549,-0.244,-0.183,0.02099,0.99755,0.15869,28.45
$IMU,26861.789,-0.427,-0.061,-0.244,0.02148,1.00048,0.15917,28.45
$IMU,26861.791,-0.061,-0.122,-0.183,0.02148,0.99951,0.15429,28.45
$MAG,26861.793,-0.141,-0.526,-0.528,27.5
$IMU,26861.793,0.244,-0.061,-0.244,0.01904,0.99804,0.15722,28.46
$IMU,26861.796,0.488,-0.183,-0.244,0.02050,1.00146,0.15771,28.46
$IMU,26861.798,0.793,-0.305,-0.305,0.01757,1.00000,0.15576,28.46
$IMU,26861.800,1.037,-0.244,-0.305,0.02001,1.00146,0.15332,28.46
$MAG,26861.803,-0.147,-0.517,-0.531,27.5
$IMU,26861.803,1.037,0.061,-0.366,0.02001,1.00390,0.15380,28.46
$IMU,26861.805,1.098,0.061,-0.427,0.01562,1.00439,0.15332,28.46
$IMU,26861.807,1.159,0.000,-0.366,0.01464,1.00341,0.14990,28.46
$IMU,26861.810,1.220,0.061,-0.427,0.01660,1.00585,0.15087,28.46
$IMU,26861.812,1.220,-0.122,-0.366,0.01904,1.00292,0.14990,28.48
$MAG,26861.813,-0.144,-0.531,-0.529,27.6
$IMU,26861.815,1.037,-0.122,-0.305,0.01904,1.00195,0.14941,28.48
$IMU,26861.817,0.915,-0.122,-0.305,0.01757,1.00537,0.14843,28.48
$IMU,26861.819,0.488,0.122,-0.366,0.01855,1.00634,0.14648,28.48
$IMU,26861.822,0.488,-0.183,-0.305,0.01562,1.00732,0.14746,28.48
$MAG,26861.823,-0.141,-0.520,-0.526,27.6
$IMU,26861.824,0.183,-0.061,-0.183,0.01513,1.00634,0.14648,28.48
$IMU,26861.826,0.000,-0.122,-0.244,0.01416,1.00634,0.14355,28.48
$IMU,26861.829,-0.366,0.000,-0.061,0.01416,1.00488,0.14404,28.48
$IMU,26861.831,-0.732,0.122,0.000,0.01513,1.00488,0.14501,28.46
$MAG,26861.833,-0.147,-0.516,-0.534,27.5
$IMU,26861.833,-0.976,-0.061,0.000,0.01416,1.00390,0.14697,28.46
$IMU,26861.836,-1.159,-0.122,0.000,0.01464,1.00439,0.14843,28.46
$IMU,26861.838,-1.281,0.000,-0.061,0.01953,1.00488,0.14746,28.46
$IMU,26861.840,-1.403,-0.244,0.000,0.02099,1.00537,0.14892,28.46
$IMU,26861.843,-1.586,0.000,0.000,0.01611,1.00537,0.14843,28.46
$MAG,26861.844,-0.144,-0.514,-0.528,27.6
$IMU,26861.845,-1.586,0.061,0.000,0.01855,1.00683,0.14990,28.46
$IMU,26861.847,-1.525,-0.244,0.000,0.01904,1.00000,0.15283,28.46
$IMU,26861.850,-1.403,-0.305,0.000,0.01953,1.00390,0.15576,28.44
$IMU,26861.852,-1.464,-0.122,-0.061,0.01904,1.00195,0.15722,28.44
$MAG,26861.854,-0.147,-0.522,-0.534,27.6
$IMU,26861.854,-1.342,-0.061,-0.122,0.01855,1.00488,0.15429,28.44
$IMU,26861.857,-1.098,0.000,-0.122,0.01806,1.00488,0.15576,28.44
$IMU,26861.859,-0.915,-0.061,-0.122,0.01904,1.00048,0.15527,28.44
$BARO,26861.861,86856.21,28.52
$IMU,26861.861,-0.671,0.122,-0.122,0.01904,1.00000,0.15576,28.44
$MAG,26861.864,-0.153,-0.529,-0.534,27.6
$IMU,26861.864,-0.366,0.000,-0.183,0.01855,0.99902,0.15576,28.44
$IMU,26861.866,-0.244,0.061,-0.183,0.02050,1.00341,0.15625,28.44
$IMU,26861.868,0.061,-0.061,-0.244,0.01904,1.00048,0.15625,28.45
$IMU,26861.871,0.305,-0.061,-0.244,0.01855,1.00146,0.15625,28.45
$IMU,26861.873,0.427,-0.122,-0.244,0.01757,1.00146,0.15478,28.45
$MAG,26861.874,-0.142,-0.523,-0.537,27.6
$IMU,26861.876,0.671,-0.183,-0.244,0.01708,1.00292,0.15429,28.45
$IMU,26861.878,0.915,-0.183,-0.244,0.01855,1.00195,0.15283,28.45
$IMU,26861.880,0.976,-0.244,-0.305,0.01953,0.99951,0.15429,28.45
$IMU,26861.883,0.976,0.000,-0.244,0.01464,0.99853,0.15429,28.45
$MAG,26861.884,-0.151,-0.519,-0.525,27.6
$IMU,26861.885,0.915,-0.122,-0.305,0.01464,1.00195,0.15136,28.45
$IMU,26861.887,0.976,-0.305,-0.305,0.01806,1.00390,0.15185,28.43
$IMU,26861.890,0.793,-0.122,-0.305,0.01660,1.00585,0.14892,28.43
$IMU,26861.892,0.610,-0.061,-0.244,0.01416,1.00634,0.14599,28.43
$MAG,26861.894,-0.142,-0.520,-0.535,27.6
$IMU,26861.894,0.366,0.122,-0.244,0.01757,1.00732,0.14648,28.43
$IMU,26861.897,0.366,-0.061,-0.244,0.01708,1.00781,0.14599,28.43
$IMU,26861.899,0.183,-0.183,-0.244,0.01562,1.00634,0.14941,28.43
$IMU,26861.901,-0.061,-0.122,-0.183,0.01611,1.00683,0.14501,28.43
$MAG,26861.904,-0.144,-0.522,-0.535,27.6
$IMU,26861.904,-0.305,-0.061,-0.061,0.01757,1.00537,0.14648,28.43
$IMU,26861.906,-0.610,0.061,0.000,0.01464,1.00732,0.14746,28.46
$IMU,26861.908,-0.793,0.061,0.000,0.01708,1.00537,0.14990,28.46
$IMU,26861.911,-0.915,-0.122,0.000,0.02050,1.00390,0.14941,28.46
$IMU,26861.913,-1.037,-0.061,-0.061,0.01953,1.00537,0.14843,28.46
$MAG,26861.914,-0.136,-0.520,-0.529,27.6
$IMU,26861.915,-1.159,-0.122,-0.122,0.01708,1.00537,0.14843,28.46
$IMU,26861.918,-1.281,0.061,-0.061,0.01660,1.00048,0.14746,28.46
$IMU,26861.920,-1.403,0.183,0.000,0.01904,1.00390,0.15039,28.46
$IMU,26861.922,-1.342,0.000,0.000,0.01513,1.00097,0.15332,28.46
$MAG,26861.924,-0.145,-0.514,-0.526,27.6
$IMU,26861.925,-1.281,-0.061,-0.061,0.02050,1.00439,0.15429,28.48
$IMU,26861.927,-1.281,0.000,0.000,0.01904,1.00341,0.15429,28.48
$IMU,26861.929,-1.037,0.000,-0.061,0.01855,1.00244,0.15332,28.48
$IMU,26861.932,-0.976,0.122,-0.122,0.01806,0.99902,0.15429,28.48
$MAG,26861.934,-0.150,-0.528,-0.529,27.6
$IMU,26861.934,-0.854,0.000,-0.183,0.01660,1.00048,0.15478,28.48
$IMU,26861.937,-0.671,0.061,-0.122,0.01904,1.00097,0.15576,28.48
$IMU,26861.939,-0.366,-0.244,-0.183,0.02001,1.00244,0.15234,28.48
$IMU,26861.941,-0.122,-0.183,-0.183,0.01806,1.00195,0.15625,28.48
$MAG,26861.944,-0.133,-0.520,-0.532,27.5
$IMU,26861.944,-0.061,-0.122,-0.183,0.01953,1.00292,0.15673,28.44
$IMU,26861.946,0.244,-0.183,-0.183,0.01611,1.00390,0.15283,28.44
$IMU,26861.948,0.427,-0.122,-0.305,0.01708,1.00341,0.15185,28.44
$IMU,26861.951,0.610,-0.244,-0.305,0.01855,1.00292,0.15283,28.44
$IMU,26861.953,0.671,-0.366,-0.305,0.01806,1.00244,0.15283,28.44
$MAG,26861.955,-0.138,-0.520,-0.523,27.6
$IMU,26861.955,0.671,-0.183,-0.183,0.02197,1.00244,0.14892,28.44
$IMU,26861.958,0.610,-0.061,-0.244,0.01757,1.00244,0.15283,28.44
$IMU,26861.960,0.610,-0.061,-0.244,0.01757,1.00683,0.15039,28.44
$IMU,26861.962,0.671,-0.244,-0.183,0.01708,1.00292,0.14990,28.47
$BARO,26861.963,86864.94,28.51
$MAG,26861.965,-0.147,-0.525,-0.534,27.7
$IMU,26861.965,0.732,-0.366,-0.183,0.01611,1.00488,0.14941,28.47
$IMU,26861.967,0.427,-0.122,-0.244,0.02001,1.00537,0.14697,28.47
$IMU,26861.969,0.366,-0.183,-0.305,0.01757,1.00292,0.14892,28.47
$IMU,26861.972,0.000,0.122,-0.061,0.01855,1.00488,0.14697,28.47
$IMU,26861.974,-0.122,0.061,-0.122,0.01562,1.00292,0.14746,28.47
$MAG,26861.975,-0.144,-0.534,-0.529,27.6
$IMU,26861.976,-0.122,-0.183,-0.122,0.01611,1.00488,0.14892,28.47
$IMU,26861.979,-0.366,-0.061,-0.122,0.01757,1.00244,0.14892,28.47
$IMU,26861.981,-0.549,-0.061,-0.244,0.02001,1.00244,0.14892,28.48
$IMU,26861.983,-0.671,-0.122,-0.122,0.02197,1.00439,0.15185,28.48
$MAG,26861.985,-0.150,-0.514,-0.523,27.6
$IMU,26861.986,-0.854,0.000,-0.061,0.01269,1.00488,0.14746,28.48
$IMU,26861.988,-0.976,0.061,-0.122,0.01171,1.00585,0.15039,28.48
$IMU,26861.990,-1.037,-0.061,-0.122,0.01855,1.00292,0.15039,28.48
$IMU,26861.993,-0.976,-0.244,-0.061,0.01708,1.00341,0.14941,28.48
$MAG,26861.995,-0.136,-0.520,-0.532,27.6
$IMU,26861.995,-1.098,-0.061,-0.122,0.02001,1.00341,0.15039,28.48
$IMU,26861.998,-1.159,0.000,-0.122,0.01660,1.00390,0.15136,28.48
$IMU,26862.000,-1.037,0.000,-0.122,0.01660,1.00439,0.15283,28.42
$IMU,26862.002,-0.854,-0.061,-0.122,0.01904,1.00048,0.15429,28.42
$MAG,26862.005,-0.136,-0.513,-0.531,27.6
$IMU,26862.005,-0.732,-0.244,-0.183,0.01757,1.00048,0.15722,28.42
$IMU,26862.007,-0.732,-0.061,-0.122,0.01904,1.00585,0.15576,28.42
$IMU,26862.009,-0.610,0.000,-0.122,0.01562,1.00390,0.15234,28.42
$IMU,26862.012,-0.427,-0.061,-0.183,0.02001,0.99951,0.15625,28.42
$IMU,26862.014,-0.305,0.000,-0.183,0.01904,1.00390,0.15429,28.42
$MAG,26862.015,-0.147,-0.525,-0.535,27.6
$IMU,26862.016,0.000,-0.244,-0.183,0.02001,1.00292,0.15625,28.42
$IMU,26862.019,0.183,-0.366,-0.244,0.01806,1.00195,0.15429,28.44
$IMU,26862.021,0.122,-0.061,-0.183,0.01904,1.00146,0.15234,28.44
$IMU,26862.023,0.244,0.000,-0.183,0.01611,1.00292,0.15576,28.44
$MAG,26862.025,-0.142,-0.528,-0.534,27.6
$IMU,26862.026,0.366,-0.183,-0.244,0.01611,1.00683,0.15234,28.44
$IMU,26862.028,0.488,-0.183,-0.183,0.01855,1.00097,0.15283,28.44
$IMU,26862.030,0.488,-0.061,-0.244,0.01855,0.99951,0.15136,28.44
$IMU,26862.033,0.488,0.000,-0.305,0.01953,1.00488,0.15087,28.44
$MAG,26862.035,-0.138,-0.519,-0.529,27.6
$IMU,26862.035,0.488,-0.061,-0.244,0.01611,1.00292,0.14941,28.44
$IMU,26862.037,0.427,-0.061,-0.183,0.01464,1.00488,0.15039,28.44
$IMU,26862.040,0.488,-0.244,-0.183,0.01513,1.00683,0.15039,28.44
$IMU,26862.042,0.366,-0.244,-0.183,0.01904,1.00537,0.14892,28.44
$IMU,26862.044,0.244,-0.183,-0.122,0.01757,1.00537,0.14843,28.44
$MAG,26862.045,-0.145,-0.520,-0.529,27.6
$IMU,26862.047,0.061,0.000,-0.061,0.02050,1.00439,0.14697,28.44
$IMU,26862.049,-0.244,0.061,-0.122,0.02001,1.00097,0.14843,28.44
$IMU,26862.051,-0.366,0.061,-0.122,0.01855,1.00585,0.14794,28.44
$IMU,26862.054,-0.366,0.000,-0.183,0.02148,1.00439,0.14746,28.44
$MAG,26862.055,-0.144,-0.517,-0.531,27.6
$IMU,26862.056,-0.549,-0.061,-0.183,0.01513,1.00488,0.14892,28.49
$IMU,26862.058,-0.671,-0.122,-0.061,0.02001,1.00488,0.14892,28.49
$IMU,26862.061,-0.793,0.000,0.000,0.02294,1.00000,0.14746,28.49
$IMU,26862.063,-0.854,-0.061,0.000,0.02099,1.00195,0.14843,28.49
$BARO,26862.064,86860.45,28.52
$MAG,26862.066,-0.141,-0.523,-0.532,27.6
$IMU,26862.066,-0.915,0.000,-0.061,0.02001,1.00292,0.14746,28.49
$IMU,26862.068,-0.976,0.000,-0.061,0.01855,1.00292,0.14843,28.49
$IMU,26862.070,-0.976,0.061,-0.122,0.02050,1.00341,0.14990,28.49
$IMU,26862.073,-1.159,0.305,-0.122,0.01806,1.00390,0.15332,28.49
$IMU,26862.075,-0.976,0.122,0.000,0.01708,0.99902,0.15332,28.45
$MAG,26862.076,-0.142,-0.523,-0.529,27.6
$IMU,26862.077,-0.793,-0.122,-0.061,0.01513,1.00439,0.15527,28.45
$IMU,26862.080,-0.671,-0.122,-0.061,0.02001,1.00341,0.15283,28.45
$IMU,26862.082,-0.488,-0.183,-0.122,0.01855,1.00097,0.15185,28.45
$IMU,26862.084,-0.549,0.000,-0.244,0.02099,1.00390,0.15332,28.45
$MAG,26862.086,-0.145,-0.516,-0.525,27.6
$IMU,26862.087,-0.427,-0.122,-0.244,0.01757,1.00585,0.15429,28.45
$IMU,26862.089,-0.244,-0.183,-0.183,0.01611,1.00146,0.15478,28.45
$IMU,26862.091,-0.061,-0.061,-0.122,0.01855,1.00292,0.15527,28.45
$IMU,26862.094,0.061,-0.122,-0.122,0.01855,1.00195,0.15478,28.46
$MAG,26862.096,-0.148,-0.526,-0.534,27.6
$IMU,26862.096,0.183,-0.183,-0.183,0.01660,1.00634,0.15478,28.46
$IMU,26862.098,0.305,-0.183,-0.244,0.01806,1.00585,0.15478,28.46
$IMU,26862.101,0.305,0.000,-0.366,0.01708,1.00341,0.15185,28.46
$IMU,26862.103,0.305,-0.061,-0.305,0.01953,1.00537,0.15234,28.46
$IMU,26862.105,0.427,-0.061,-0.244,0.01708,1.00390,0.15185,28.46
$MAG,26862.106,-0.147,-0.528,-0.534,27.5
$IMU,26862.108,0.366,-0.061,-0.244,0.01757,1.00537,0.15234,28.46
$IMU,26862.110,0.366,-0.122,-0.305,0.02050,1.00488,0.15087,28.46
$IMU,26862.112,0.183,0.061,-0.244,0.01757,1.00439,0.15136,28.45
$IMU,26862.115,0.244,-0.061,-0.122,0.01806,1.00488,0.14941,28.45
$MAG,26862.116,-0.144,-0.520,-0.529,27.6
$IMU,26862.117,0.183,-0.122,-0.183,0.01757,1.00341,0.14550,28.45
$IMU,26862.119,0.122,-0.183,-0.244,0.02050,1.00244,0.14599,28.45
$IMU,26862.122,-0.122,-0.183,-0.183,0.01904,1.00585,0.14990,28.45
$IMU,26862.124,-0.305,-0.061,-0.122,0.01757,1.00195,0.14794,28.45
$MAG,26862.126,-0.147,-0.520,-0.534,27.6
$IMU,26862.127,-0.427,0.000,-0.122,0.01464,1.00097,0.14794,28.45
$IMU,26862.129,-0.610,0.061,-0.122,0.01855,1.00488,0.15136,28.45
$IMU,26862.131,-0.732,0.061,-0.061,0.02197,1.00292,0.14941,28.50
$IMU,26862.134,-0.732,-0.122,-0.061,0.01513,1.00390,0.15039,28.50
$MAG,26862.136,-0.142,-0.528,-0.531,27.6
$IMU,26862.136,-0.793,0.061,-0.122,0.01708,1.00634,0.14990,28.50
$IMU,26862.138,-0.915,0.183,-0.183,0.01611,1.00683,0.15283,28.50
$IMU,26862.141,-0.793,-0.122,-0.122,0.01660,1.00341,0.15087,28.50
$IMU,26862.143,-0.854,0.000,-0.122,0.01757,1.00048,0.15429,28.50
$IMU,26862.145,-0.793,-0.061,-0.061,0.01708,0.99951,0.15332,28.50
$MAG,26862.146,-0.136,-0.519,-0.535,27.6
$IMU,26862.148,-0.671,-0.122,-0.122,0.01611,1.00341,0.15332,28.50
$IMU,26862.150,-0.732,0.122,-0.122,0.01855,1.00634,0.15380,28.46
$IMU,26862.152,-0.610,0.183,-0.183,0.02050,1.00732,0.15576,28.46
$IMU,26862.155,-0.488,-0.061,-0.183,0.02050,1.00390,0.15380,28.46
$MAG,26862.156,-0.147,-0.519,-0.532,27.6
$IMU,26862.157,-0.305,-0.183,-0.122,0.01562,1.00292,0.15185,28.46
$IMU,26862.159,-0.244,-0.122,-0.183,0.01611,1.00390,0.15185,28.46
$IMU,26862.162,-0.122,-0.061,-0.183,0.01464,1.00195,0.15576,28.46
$IMU,26862.164,-0.061,0.061,-0.122,0.01660,1.00146,0.15185,28.46
$BARO,26862.166,86867.84,28.52
$MAG,26862.166,-0.142,-0.519,-0.534,27.5
$IMU,26862.166,0.183,0.061,-0.244,0.01416,1.00341,0.15625,28.46
$IMU,26862.169,0.305,-0.183,-0.244,0.01708,1.00390,0.15039,28.48
$IMU,26862.171,0.366,-0.183,-0.244,0.01757,1.00341,0.15136,28.48
$IMU,26862.173,0.305,-0.061,-0.244,0.01611,1.00146,0.15136,28.48
$MAG,26862.176,-0.135,-0.522,-0.532,27.5
$IMU,26862.176,0.183,-0.122,-0.183,0.01513,1.00341,0.15185,28.48
$IMU,26862.178,0.244,0.000,-0.183,0.01806,1.00097,0.15087,28.48
$IMU,26862.180,0.244,-0.061,-0.183,0.01806,1.00048,0.14990,28.48
$IMU,26862.183,0.244,-0.183,-0.183,0.01708,1.00097,0.14892,28.48
$IMU,26862.185,0.183,-0.122,-0.244,0.01757,1.00341,0.14892,28.48
$MAG,26862.187,-0.136,-0.522,-0.526,27.6
$IMU,26862.188,0.061,-0.061,-0.244,0.01562,0.99804,0.14648,28.47
$VBAT,26862.189,4.138
$IMU,26862.190,-0.122,0.122,-0.183,0.01757,1.00048,0.14990,28.47
$IMU,26862.192,-0.244,0.061,-0.183,0.01953,1.00634,0.14746,28.47
$IMU,26862.195,-0.366,0.000,-0.122,0.01904,1.00683,0.14892,28.47
$MAG,26862.197,-0.147,-0.522,-0.531,27.6
$IMU,26862.197,-0.427,-0.061,-0.122,0.02050,1.00585,0.15234,28.47
$IMU,26862.199,-0.488,-0.061,-0.183,0.01806,1.00634,0.15087,28.47
$IMU,26862.202,-0.549,-0.061,-0.183,0.01953,1.00488,0.14892,28.47
$IMU,26862.204,-0.671,0.061,-0.183,0.01611,1.00634,0.14892,28.47
$IMU,26862.206,-0.732,0.000,-0.183,0.01904,1.00390,0.14941,28.46
$MAG,26862.207,-0.147,-0.526,-0.531,27.6
$IMU,26862.209,-0.671,-0.122,-0.122,0.01806,1.00537,0.15136,28.46
$IMU,26862.211,-0.610,-0.183,-0.061,0.01562,1.00683,0.15185,28.46
$IMU,26862.213,-0.671,-0.061,-0.122,0.01708,1.00634,0.15380,28.46
$IMU,26862.216,-0.671,-0.061,-0.122,0.01611,1.00585,0.15087,28.46
$MAG,26862.217,-0.141,-0.529,-0.534,27.6
$IMU,26862.218,-0.610,0.000,-0.061,0.01806,1.00634,0.15283,28.46
$IMU,26862.220,-0.610,0.000,-0.122,0.01953,1.00341,0.15234,28.46
$IMU,26862.223,-0.549,0.000,-0.122,0.01904,1.00341,0.15185,28.46
$IMU,26862.225,-0.427,-0.061,-0.183,0.01611,1.00292,0.15185,28.43
$MAG,26862.227,-0.145,-0.520,-0.528,27.7
$IMU,26862.227,-0.488,0.000,-0.183,0.02099,1.00390,0.15283,28.43
$IMU,26862.230,-0.427,-0.061,-0.122,0.01953,1.00341,0.15380,28.43
$IMU,26862.232,-0.244,-0.061,-0.122,0.02001,1.00292,0.15087,28.43
$IMU,26862.234,-0.122,-0.122,-0.244,0.01708,1.00244,0.15087,28.43
$MAG,26862.237,-0.145,-0.519,-0.529,27.6
$IMU,26862.237,-0.122,-0.183,-0.244,0.01904,0.99755,0.15332,28.43
$IMU,26862.239,0.000,-0.183,-0.183,0.01855,1.00048,0.15234,28.43
$IMU,26862.241,-0.122,0.000,-0.244,0.01806,1.00097,0.15136,28.43
$IMU,26862.244,-0.183,0.000,-0.183,0.01611,1.00537,0.14941,28.47
$IMU,26862.246,-0.122,-0.061,-0.122,0.01708,1.00292,0.15380,28.47
$MAG,26862.247,-0.139,-0.517,-0.531,27.6
$IMU,26862.249,0.122,-0.122,-0.122,0.01708,1.00048,0.14941,28.47
$IMU,26862.251,0.122,-0.305,-0.183,0.01708,1.00292,0.15087,28.47
$IMU,26862.253,0.061,-0.183,-0.183,0.01855,1.00048,0.15136,28.47
$IMU,26862.256,0.122,0.000,-0.122,0.02050,1.00244,0.15380,28.47
$MAG,26862.257,-0.147,-0.526,-0.531,27.5
$IMU,26862.258,0.061,-0.061,-0.183,0.01806,1.00634,0.15039,28.47
$IMU,26862.260,0.000,-0.122,-0.183,0.02001,1.00585,0.15332,28.47
$IMU,26862.263,-0.061,0.061,-0.122,0.01708,1.00439,0.14941,28.46
$IMU,26862.265,-0.122,-0.061,-0.061,0.01806,1.00292,0.14843,28.46
$BARO,26862.267,86860.04,28.52
$MAG,26862.267,-0.145,-0.511,-0.531,27.6
$IMU,26862.267,-0.122,-0.183,-0.122,0.01562,1.00292,0.15087,28.46
$IMU,26862.270,-0.183,0.061,-0.122,0.01953,1.00390,0.14941,28.46
$IMU,26862.272,-0.244,-0.061,-0.244,0.01855,1.00634,0.15087,28.46
$IMU,26862.274,-0.244,-0.061,-0.244,0.01806,1.00292,0.14990,28.46
$MAG,26862.277,-0.144,-0.514,-0.531,27.6
$IMU,26862.277,-0.305,0.061,-0.122,0.01855,1.00244,0.14941,28.46
$IMU,26862.279,-0.366,0.000,-0.183,0.01562,1.00341,0.14941,28.46
$IMU,26862.281,-0.488,-0.183,-0.183,0.01757,1.00488,0.14941,28.44
$IMU,26862.284,-0.549,0.000,-0.183,0.02148,1.00585,0.14941,28.44
$IMU,26862.286,-0.488,0.000,-0.183,0.01708,1.00439,0.15136,28.44
$MAG,26862.287,-0.139,-0.519,-0.535,27.7
$IMU,26862.288,-0.549,-0.061,-0.183,0.01708,1.00537,0.15185,28.44
$IMU,26862.291,-0.549,0.000,-0.244,0.01904,1.00244,0.15234,28.44
$IMU,26862.293,-0.549,0.122,-0.122,0.02246,1.00341,0.15039,28.44
$IMU,26862.295,-0.488,-0.061,-0.122,0.01904,1.00097,0.15283,28.44
$MAG,26862.298,-0.139,-0.522,-0.526,27.6
$IMU,26862.298,-0.488,-0.061,-0.122,0.01611,1.00439,0.14941,28.44
$IMU,26862.300,-0.366,-0.244,-0.122,0.01757,1.00537,0.15429,28.45
$IMU,26862.302,-0.549,0.061,-0.122,0.01953,1.00390,0.15136,28.45
$IMU,26862.305,-0.549,0.122,-0.122,0.01904,1.00244,0.15234,28.45
$IMU,26862.307,-0.427,0.122,-0.183,0.01953,1.00244,0.15185,28.45
$MAG,26862.308,-0.147,-0.523,-0.525,27.5
$IMU,26862.310,-0.305,0.000,-0.183,0.01904,1.00439,0.15185,28.45
$IMU,26862.312,-0.061,-0.366,-0.244,0.01855,1.00146,0.14892,28.45
$IMU,26862.314,-0.122,-0.122,-0.122,0.02001,1.00439,0.15039,28.45
$IMU,26862.317,-0.122,-0.122,-0.183,0.01904,1.00292,0.15429,28.45
$MAG,26862.318,-0.142,-0.520,-0.531,27.6
$IMU,26862.319,-0.244,-0.122,-0.305,0.02099,1.00195,0.14941,28.46
$IMU,26862.321,-0.183,0.000,-0.244,0.01611,1.00390,0.15087,28.46
$IMU,26862.324,-0.061,-0.122,-0.244,0.01708,1.00195,0.15039,28.46
$IMU,26862.326,-0.061,-0.183,-0.183,0.01611,1.00537,0.15332,28.46
$MAG,26862.328,-0.150,-0.514,-0.528,27.6
$IMU,26862.328,0.061,-0.183,-0.122,0.01660,1.00634,0.15136,28.46
$IMU,26862.331,-0.061,0.000,-0.183,0.01562,1.00585,0.15478,28.46
$IMU,26862.333,-0.122,-0.122,-0.183,0.01855,1.00244,0.15136,28.46
$IMU,26862.335,-0.061,-0.061,-0.183,0.01513,1.00292,0.15185,28.46
$MAG,26862.338,-0.147,-0.528,-0.534,27.7
$IMU,26862.338,0.000,-0.183,-0.244,0.01611,1.00341,0.15087,28.46
$IMU,26862.340,-0.183,-0.183,-0.305,0.01806,1.00195,0.15185,28.46
$IMU,26862.342,-0.122,-0.061,-0.183,0.01806,1.00195,0.15039,28.46
$IMU,26862.345,-0.244,0.061,-0.183,0.02099,1.00195,0.14990,28.46
$IMU,26862.347,-0.244,-0.061,-0.183,0.01757,1.00292,0.15039,28.46
$MAG,26862.348,-0.148,-0.525,-0.535,27.6
$IMU,26862.349,-0.244,-0.061,-0.122,0.01708,1.00439,0.15234,28.46
$IMU,26862.352,-0.244,-0.183,0.000,0.01660,1.00439,0.15380,28.46
$IMU,26862.354,-0.305,-0.183,-0.122,0.01806,1.00292,0.15234,28.46
$IMU,26862.356,-0.366,-0.122,-0.122,0.01855,1.00341,0.15234,28.47
$MAG,26862.358,-0.145,-0.526,-0.531,27.5
$IMU,26862.359,-0.427,0.000,-0.122,0.02050,1.00341,0.15039,28.47
$IMU,26862.361,-0.427,-0.061,-0.183,0.01904,1.00244,0.15332,28.47
$IMU,26862.363,-0.488,-0.061,-0.183,0.01953,1.00097,0.15332,28.47
$IMU,26862.366,-0.427,0.000,-0.061,0.01904,1.00341,0.14990,28.47
$MAG,26862.368,-0.142,-0.528,-0.537,27.7
$IMU,26862.368,-0.366,-0.122,-0.122,0.02148,1.00195,0.15332,28.47
$BARO,26862.369,86873.74,28.52
$IMU,26862.371,-0.427,0.000,-0.122,0.01953,1.00341,0.15087,28.47
$IMU,26862.373,-0.488,0.061,-0.122,0.01855,1.00488,0.15283,28.47
$IMU,26862.375,-0.427,0.000,-0.122,0.01855,1.00439,0.15283,28.46
$MAG,26862.378,-0.147,-0.520,-0.532,27.5
$IMU,26862.378,-0.366,0.000,-0.183,0.01611,1.00244,0.15039,28.46
$IMU,26862.380,-0.244,-0.122,-0.122,0.01611,1.00244,0.15234,28.46
$IMU,26862.382,-0.305,0.000,-0.183,0.01904,1.00341,0.15234,28.46
$IMU,26862.385,-0.183,0.000,-0.122,0.01953,1.00732,0.15576,28.46
$IMU,26862.387,-0.183,0.000,-0.122,0.01855,1.00195,0.15380,28.46
$MAG,26862.388,-0.145,-0.520,-0.528,27.6
$IMU,26862.389,-0.122,-0.061,-0.122,0.01855,1.00537,0.15332,28.46
$IMU,26862.392,-0.122,-0.061,-0.183,0.01806,1.00634,0.15185,28.46
$IMU,26862.394,-0.061,-0.122,-0.122,0.01513,1.00244,0.15332,28.48
$IMU,26862.396,-0.061,0.000,-0.244,0.01904,1.00048,0.15136,28.48
$MAG,26862.398,-0.148,-0.526,-0.534,27.6
$IMU,26862.399,-0.061,-0.122,-0.244,0.02148,1.00097,0.15234,28.48
$IMU,26862.401,-0.061,0.000,-0.183,0.01806,0.99902,0.15185,28.48
$IMU,26862.403,0.000,-0.183,-0.244,0.01562,1.00537,0.15087,28.48
$IMU,26862.406,0.000,-0.244,-0.244,0.01708,1.00244,0.15185,28.48
$MAG,26862.408,-0.148,-0.520,-0.535,27.6
$IMU,26862.408,-0.061,-0.122,-0.244,0.02050,1.00732,0.15185,28.48
$IMU,26862.410,-0.122,0.000,-0.183,0.02099,1.00244,0.15234,28.48
$IMU,26862.413,-0.183,0.000,-0.183,0.01855,1.00781,0.15039,28.46
$IMU,26862.415,-0.244,-0.122,-0.122,0.02050,1.00488,0.14941,28.46
$IMU,26862.417,-0.183,-0.183,-0.183,0.01757,1.00439,0.14843,28.46
$MAG,26862.419,-0.145,-0.523,-0.537,27.6
$IMU,26862.420,-0.244,-0.061,-0.122,0.01513,1.00683,0.15234,28.46
$IMU,26862.422,-0.305,-0.122,-0.122,0.01611,1.00341,0.14990,28.46
$IMU,26862.424,-0.305,-0.061,-0.183,0.02099,1.00292,0.15380,28.46
$IMU,26862.427,-0.427,0.000,-0.183,0.01757,1.00341,0.15234,28.46
$IMU,26862.429,-0.488,-0.061,-0.061,0.02099,1.00097,0.14794,28.46
$MAG,26862.429,-0.145,-0.517,-0.531,27.7
$IMU,26862.431,-0.427,-0.244,-0.122,0.01806,0.99951,0.14794,28.46
$IMU,26862.434,-0.488,0.000,-0.183,0.01757,1.00146,0.14843,28.46
$IMU,26862.436,-0.427,-0.061,-0.183,0.01757,0.99707,0.14892,28.46
$MAG,26862.439,-0.142,-0.526,-0.541,27.6
$IMU,26862.439,-0.549,-0.061,-0.122,0.01757,1.00146,0.15234,28.46
$IMU,26862.441,-0.488,-0.122,-0.183,0.01757,1.00146,0.15136,28.46
$IMU,26862.443,-0.549,-0.122,-0.244,0.01855,1.00048,0.15185,28.46
$IMU,26862.446,-0.610,0.061,-0.183,0.01562,1.00390,0.15185,28.46
$IMU,26862.448,-0.488,-0.122,-0.122,0.01855,1.00390,0.15039,28.46
$MAG,26862.449,-0.148,-0.517,-0.532,27.6
$IMU,26862.450,-0.427,-0.061,-0.122,0.01708,1.00390,0.15087,28.51
$IMU,26862.453,-0.366,-0.122,-0.183,0.01953,1.00439,0.15429,28.51
$IMU,26862.455,-0.305,-0.122,-0.244,0.01708,1.00146,0.15576,28.51
$IMU,26862.457,-0.305,-0.183,-0.183,0.01757,1.00000,0.15332,28.51
$MAG,26862.459,-0.150,-0.517,-0.540,27.5
$IMU,26862.460,-0.244,-0.061,-0.183,0.01708,1.00244,0.15234,28.51
$IMU,26862.462,-0.183,0.000,-0.183,0.02001,1.00439,0.15527,28.51
$IMU,26862.464,-0.061,-0.183,-0.061,0.01708,1.00195,0.15283,28.51
$IMU,26862.467,0.000,-0.122,-0.122,0.01855,1.00292,0.15039,28.51
$MAG,26862.469,-0.144,-0.517,-0.534,27.6
$IMU,26862.469,0.061,-0.122,-0.183,0.01708,1.00390,0.14843,28.48
$BARO,26862.470,86873.35,28.51
$IMU,26862.471,0.061,-0.061,-0.244,0.01904,1.00537,0.15283,28.48
$IMU,26862.474,0.183,-0.122,-0.244,0.01708,1.00488,0.15429,28.48
$IMU,26862.476,0.122,0.000,-0.244,0.01904,1.00292,0.15039,28.48
$IMU,26862.478,0.061,-0.061,-0.183,0.01611,1.00439,0.15283,28.48
$MAG,26862.479,-0.136,-0.523,-0.529,27.6
$IMU,26862.481,0.061,-0.183,-0.183,0.01562,1.00244,0.15087,28.48
$IMU,26862.483,0.000,-0.122,-0.122,0.01806,1.00488,0.15136,28.48
$IMU,26862.485,-0.122,-0.061,-0.122,0.01708,1.00439,0.15136,28.48
$IMU,26862.488,-0.061,-0.122,-0.183,0.01904,1.00292,0.15087,28.46
$MAG,26862.489,-0.141,-0.513,-0.540,27.6
$IMU,26862.490,-0.122,-0.122,-0.122,0.02001,1.00097,0.15136,28.46
$IMU,26862.492,-0.183,-0.122,-0.244,0.02050,1.00195,0.15087,28.46
$IMU,26862.495,-0.244,-0.061,-0.244,0.01806,1.00146,0.15283,28.46
$IMU,26862.497,-0.366,-0.061,-0.122,0.01757,1.00195,0.15087,28.46
$MAG,26862.499,-0.151,-0.528,-0.534,27.6
$IMU,26862.500,-0.488,0.000,-0.122,0.02001,1.00195,0.14892,28.46
$IMU,26862.502,-0.427,-0.061,-0.122,0.01416,1.00292,0.15039,28.46
$IMU,26862.504,-0.488,-0.061,-0.183,0.02050,1.00244,0.15039,28.46
$IMU,26862.507,-0.488,-0.122,-0.183,0.01708,1.00292,0.15185,28.48
$MAG,26862.509,-0.145,-0.520,-0.526,27.7
$IMU,26862.509,-0.610,0.000,-0.122,0.01953,1.00585,0.15136,28.48
$IMU,26862.511,-0.610,0.000,-0.183,0.01953,0.99951,0.15039,28.48
$IMU,26862.514,-0.549,-0.122,-0.183,0.02001,1.00390,0.14892,28.48
$IMU,26862.516,-0.488,-0.122,-0.061,0.02148,1.00292,0.15185,28.48
$HUM,26862.518,34.7,28.9
$IMU,26862.518,-0.427,-0.122,-0.061,0.01660,1.00585,0.15283,28.48
$MAG,26862.519,-0.144,-0.522,-0.529,27.6
$IMU,26862.521,-0.488,-0.061,-0.183,0.01806,1.00488,0.15136,28.48
$IMU,26862.523,-0.549,0.000,-0.122,0.01806,1.00048,0.15039,28.48
$IMU,26862.525,-0.366,0.000,-0.183,0.01855,1.00439,0.15185,28.49
$IMU,26862.528,-0.244,-0.061,-0.183,0.01904,1.00341,0.15039,28.49
$MAG,26862.530,-0.145,-0.525,-0.540,27.6
$IMU,26862.530,-0.183,-0.122,-0.244,0.01513,1.00292,0.15136,28.49
$IMU,26862.532,-0.183,-0.244,-0.183,0.01806,1.00048,0.14990,28.49
$IMU,26862.535,-0.183,-0.061,-0.183,0.01611,1.00244,0.15185,28.49
$IMU,26862.537,-0.122,-0.122,-0.183,0.01953,1.00634,0.15185,28.49
$IMU,26862.539,-0.061,0.000,-0.122,0.01611,1.00292,0.15136,28.49
$MAG,26862.540,-0.142,-0.510,-0.537,27.5
$IMU,26862.542,0.000,-0.122,-0.244,0.01806,1.00390,0.14843,28.49
$IMU,26862.544,0.061,-0.061,-0.244,0.01464,1.00292,0.15087,28.44
$IMU,26862.546,0.122,-0.122,-0.183,0.01660,1.00439,0.14990,28.44
$IMU,26862.549,0.000,0.000,-0.183,0.01464,1.00537,0.14941,28.44
$MAG,26862.550,-0.144,-0.519,-0.526,27.6
$IMU,26862.551,0.000,-0.061,-0.122,0.01562,1.00537,0.15283,28.44
$IMU,26862.553,-0.061,-0.122,-0.183,0.01708,1.00488,0.15039,28.44
$IMU,26862.556,-0.061,-0.122,-0.122,0.01708,1.00439,0.14990,28.44
$IMU,26862.558,-0.061,-0.061,-0.122,0.01757,1.00244,0.15039,28.44
$MAG,26862.560,-0.136,-0.520,-0.534,27.6
$IMU,26862.561,-0.122,0.000,-0.183,0.01953,1.00146,0.14843,28.44
$IMU,26862.563,-0.244,-0.061,-0.183,0.01855,1.00244,0.15039,28.47
$IMU,26862.565,-0.305,-0.061,-0.122,0.01416,1.00097,0.14990,28.47
$IMU,26862.568,-0.305,-0.183,-0.061,0.01757,1.00488,0.15332,28.47
$MAG,26862.570,-0.145,-0.520,-0.534,27.6
$IMU,26862.570,-0.366,-0.183,0.000,0.01611,1.00292,0.15136,28.47
$BARO,26862.572,86871.13,28.51
$IMU,26862.572,-0.488,-0.183,-0.061,0.01660,1.00488,0.15087,28.47
$IMU,26862.575,-0.549,-0.061,-0.183,0.02197,1.00146,0.15527,28.47
$IMU,26862.577,-0.488,-0.061,-0.244,0.02148,1.00195,0.15332,28.47
$IMU,26862.579,-0.488,0.000,-0.244,0.01757,1.00146,0.14990,28.47
$MAG,26862.580,-0.141,-0.520,-0.531,27.5
$IMU,26862.582,-0.427,-0.122,-0.183,0.01513,1.00146,0.15087,28.48
$IMU,26862.584,-0.488,-0.122,-0.183,0.01806,1.00097,0.15234,28.48
$IMU,26862.586,-0.549,0.061,-0.122,0.01611,1.00292,0.15234,28.48
$IMU,26862.589,-0.488,-0.061,-0.122,0.01562,1.00439,0.15234,28.48
$MAG,26862.590,-0.139,-0.507,-0.532,27.3
$IMU,26862.591,-0.488,0.000,-0.122,0.02001,1.00439,0.15332,28.48
$IMU,26862.593,-0.427,0.000,-0.122,0.01660,1.00537,0.15234,28.48
$IMU,26862.596,-0.244,-0.122,-0.244,0.01855,1.00585,0.15136,28.48
$IMU,26862.598,-0.244,0.000,-0.244,0.02050,1.00488,0.15429,28.48
$MAG,26862.600,-0.151,-0.519,-0.534,27.7
$IMU,26862.600,-0.244,0.000,-0.183,0.01855,1.00683,0.15234,28.44
$IMU,26862.603,-0.305,0.000,-0.183,0.01611,1.00390,0.15332,28.44
$IMU,26862.605,-0.122,-0.183,-0.122,0.01855,1.00683,0.15234,28.44
$IMU,26862.607,-0.122,-0.244,-0.122,0.01855,1.00390,0.15185,28.44
$MAG,26862.610,-0.144,-0.519,-0.528,27.6
$IMU,26862.610,-0.061,-0.122,-0.244,0.01806,1.00292,0.15185,28.44
$IMU,26862.612,0.000,-0.183,-0.183,0.01855,1.00097,0.14990,28.44
$IMU,26862.614,-0.122,0.000,-0.183,0.01953,1.00439,0.15039,28.44
$IMU,26862.617,-0.122,0.000,-0.183,0.01855,1.00439,0.15185,28.44
$IMU,26862.619,-0.061,-0.061,-0.122,0.02050,1.00244,0.15380,28.47
$MAG,26862.620,-0.145,-0.516,-0.535,27.6
$IMU,26862.622,0.000,-0.244,-0.183,0.02099,1.00585,0.14892,28.47
$IMU,26862.624,-0.183,-0.061,-0.183,0.01953,1.00341,0.15039,28.47
$IMU,26862.626,-0.244,0.122,-0.244,0.02001,1.00488,0.15234,28.47
$IMU,26862.629,-0.244,0.061,-0.244,0.01660,1.00390,0.15283,28.47
$MAG,26862.630,-0.147,-0.520,-0.528,27.6
$IMU,26862.631,-0.183,-0.122,-0.122,0.01708,1.00341,0.14892,28.47
$IMU,26862.633,-0.122,-0.122,-0.122,0.01464,1.00292,0.15087,28.47
$IMU,26862.636,-0.183,-0.122,-0.122,0.01855,1.00439,0.15039,28.47
$IMU,26862.638,-0.244,-0.122,-0.122,0.01708,1.00390,0.14990,28.49
$MAG,26862.640,-0.139,-0.526,-0.537,27.6
$IMU,26862.640,-0.244,-0.061,-0.122,0.01757,1.00488,0.15283,28.49
$IMU,26862.643,-0.305,0.061,-0.183,0.02001,1.00439,0.15283,28.49
$IMU,26862.645,-0.427,-0.061,-0.122,0.01416,1.00488,0.15380,28.49
$IMU,26862.647,-0.366,-0.183,-0.183,0.01660,1.00390,0.15429,28.49
$IMU,26862.650,-0.366,-0.244,-0.183,0.01855,1.00244,0.15185,28.49
$MAG,26862.651,-0.139,-0.513,-0.528,27.6
$IMU,26862.652,-0.427,-0.061,-0.122,0.01855,1.00390,0.14941,28.49
$IMU,26862.654,-0.366,-0.061,-0.061,0.01953,1.00439,0.15332,28.49
$IMU,26862.657,-0.366,-0.183,-0.183,0.01904,1.00341,0.15087,28.49
$IMU,26862.659,-0.366,-0.122,-0.244,0.02246,1.00390,0.15087,28.49
$MAG,26862.661,-0.141,-0.520,-0.532,27.6
$IMU,26862.661,-0.427,-0.122,-0.183,0.01806,1.00097,0.15380,28.49
$IMU,26862.664,-0.427,-0.122,-0.183,0.01806,1.00634,0.15087,28.49
$IMU,26862.666,-0.305,-0.061,-0.183,0.01660,1.00292,0.15185,28.49
$IMU,26862.668,-0.305,-0.061,-0.122,0.01708,1.00195,0.15429,28.49
$MAG,26862.671,-0.141,-0.510,-0.537,27.6
$IMU,26862.671,-0.244,-0.122,-0.183,0.01904,1.00146,0.15332,28.49
$BARO,26862.673,86878.78,28.52
$IMU,26862.673,-0.244,0.061,-0.122,0.01855,1.00439,0.15234,28.49
$IMU,26862.675,-0.122,-0.122,-0.122,0.01708,1.00146,0.15136,28.49
$IMU,26862.678,-0.122,-0.183,-0.183,0.02001,0.99902,0.15332,28.49
$IMU,26862.680,-0.183,0.000,-0.244,0.01757,1.00097,0.15332,28.49
$MAG,26862.681,-0.148,-0.522,-0.534,27.5
$IMU,26862.683,-0.122,-0.122,-0.244,0.01611,1.00195,0.15332,28.49
$IMU,26862.685,-0.122,-0.183,-0.183,0.01611,1.00439,0.15429,28.49
$IMU,26862.687,-0.122,-0.122,-0.122,0.01611,1.00146,0.15234,28.49
$IMU,26862.690,-0.061,-0.061,-0.122,0.01708,1.00488,0.15136,28.49
$MAG,26862.691,-0.151,-0.520,-0.528,27.6
$IMU,26862.692,0.000,-0.244,-0.122,0.01806,1.00341,0.15136,28.49
$IMU,26862.694,-0.061,-0.061,-0.183,0.01806,1.00341,0.15087,28.45
$IMU,26862.697,-0.122,0.000,-0.244,0.01904,1.00390,0.15039,28.45
$IMU,26862.699,-0.183,-0.061,-0.244,0.01855,1.00292,0.14990,28.45
$MAG,26862.701,-0.148,-0.513,-0.532,27.6
$IMU,26862.701,-0.183,-0.183,-0.183,0.01855,1.00244,0.15136,28.45
$IMU,26862.704,-0.183,-0.061,-0.061,0.01757,1.00439,0.15185,28.45
$IMU,26862.706,-0.183,0.000,-0.183,0.01757,1.00488,0.14941,28.45
$IMU,26862.708,-0.244,0.000,-0.061,0.01708,1.00292,0.15185,28.45
$MAG,26862.711,-0.139,-0.528,-0.535,27.6
$IMU,26862.711,-0.122,-0.061,-0.183,0.01953,1.00244,0.15039,28.45
$IMU,26862.713,-0.244,-0.061,-0.183,0.01416,1.00244,0.15234,28.47
$IMU,26862.715,-0.244,-0.122,-0.122,0.01757,1.00195,0.15136,28.47
$IMU,26862.718,-0.305,0.061,-0.122,0.01757,1.00341,0.14941,28.47
$IMU,26862.720,-0.366,0.000,-0.183,0.01611,1.00390,0.14941,28.47
$MAG,26862.721,-0.142,-0.520,-0.531,27.6
$IMU,26862.722,-0.305,-0.183,-0.122,0.01953,1.00341,0.15087,28.47
$IMU,26862.725,-0.305,0.000,-0.061,0.01855,1.00341,0.15283,28.47
$IMU,26862.727,-0.305,-0.061,-0.244,0.01562,1.00292,0.14941,28.47
$IMU,26862.729,-0.427,0.122,-0.305,0.01611,1.00390,0.15283,28.47
$MAG,26862.731,-0.148,-0.526,-0.534,27.6
$IMU,26862.732,-0.427,0.061,-0.183,0.01953,1.00488,0.15283,28.42
$IMU,26862.734,-0.488,-0.061,-0.183,0.01660,1.00292,0.15234,28.42
$IMU,26862.736,-0.427,-0.183,-0.122,0.01806,1.00439,0.15087,28.42
$IMU,26862.739,-0.305,-0.122,-0.183,0.01611,1.00390,0.15136,28.42
$MAG,26862.741,-0.150,-0.525,-0.535,27.6
$IMU,26862.741,-0.366,0.000,-0.122,0.01757,1.00439,0.15234,28.42
$IMU,26862.744,-0.305,-0.122,-0.183,0.01904,1.00439,0.15136,28.42
$IMU,26862.746,-0.305,0.000,-0.244,0.02050,1.00292,0.15185,28.42
$IMU,26862.748,-0.305,0.000,-0.244,0.01708,1.00244,0.15185,28.42
$MAG,26862.751,-0.141,-0.520,-0.526,27.7
$IMU,26862.751,-0.183,-0.122,-0.244,0.01660,1.00537,0.15136,28.47
$IMU,26862.753,-0.183,-0.183,-0.244,0.01708,1.00244,0.14990,28.47
$IMU,26862.755,-0.244,0.061,-0.183,0.02001,1.00292,0.14990,28.47
$IMU,26862.758,-0.244,-0.061,-0.061,0.01562,0.99902,0.15429,28.47
$IMU,26862.760,-0.183,0.000,-0.183,0.01757,1.00244,0.15185,28.47
$MAG,26862.762,-0.148,-0.519,-0.537,27.6
$IMU,26862.762,-0.122,-0.122,-0.122,0.01904,1.00097,0.15234,28.47
$IMU,26862.765,-0.183,0.000,-0.183,0.01611,1.00488,0.15185,28.47
$IMU,26862.767,-0.122,-0.122,-0.244,0.01806,1.00439,0.15185,28.47
$IMU,26862.769,-0.183,-0.122,-0.244,0.01513,1.00292,0.15136,28.47
$MAG,26862.772,-0.144,-0.522,-0.541,27.6
$IMU,26862.772,-0.244,0.000,-0.183,0.01513,1.00195,0.15136,28.47
$IMU,26862.774,-0.244,0.000,-0.122,0.02050,1.00000,0.15283,28.47
$BARO,26862.775,86858.09,28.51
$IMU,26862.776,-0.122,-0.183,-0.183,0.01708,0.99902,0.15136,28.47
$IMU,26862.779,-0.122,-0.183,-0.122,0.01464,0.99951,0.15087,28.47
$IMU,26862.781,-0.183,0.122,-0.183,0.01611,1.00146,0.14990,28.47
$MAG,26862.782,-0.139,-0.528,-0.534,27.7
$IMU,26862.783,-0.244,-0.061,-0.183,0.01708,1.00292,0.15332,28.47
$IMU,26862.786,-0.305,-0.061,-0.183,0.01904,1.00537,0.15283,28.47
$IMU,26862.788,-0.244,0.000,-0.183,0.01855,1.00390,0.15478,28.50
$IMU,26862.790,-0.244,-0.122,-0.122,0.01904,1.00683,0.15136,28.50
$MAG,26862.792,-0.145,-0.522,-0.532,27.6
$IMU,26862.793,-0.244,0.000,-0.122,0.01367,1.00634,0.15185,28.50
$IMU,26862.795,-0.244,-0.061,-0.122,0.01904,1.00537,0.14990,28.50
$IMU,26862.797,-0.244,-0.061,-0.183,0.01513,1.00488,0.15087,28.50
$IMU,26862.800,-0.244,-0.061,-0.183,0.01806,1.00341,0.14990,28.50
$MAG,26862.802,-0.147,-0.523,-0.523,27.5
$IMU,26862.802,-0.305,-0.061,-0.183,0.01806,1.00439,0.14990,28.50
$IMU,26862.805,-0.366,0.000,-0.061,0.02001,1.00390,0.15283,28.50
$IMU,26862.807,-0.366,0.000,-0.122,0.01757,1.00244,0.14794,28.48
$IMU,26862.809,-0.427,0.122,-0.122,0.01806,1.00146,0.15136,28.48
$MAG,26862.812,-0.141,-0.522,-0.531,27.7
$IMU,26862.812,-0.244,-0.183,-0.122,0.01513,1.00439,0.15136,28.48
$IMU,26862.814,-0.305,-0.183,-0.183,0.01416,1.00292,0.15039,28.48
$IMU,26862.816,-0.305,0.000,-0.244,0.02099,1.00146,0.14990,28.48
$IMU,26862.819,-0.244,-0.061,-0.244,0.01708,1.00097,0.15185,28.48
$IMU,26862.821,-0.366,0.000,-0.122,0.01416,1.00244,0.15039,28.48
$MAG,26862.822,-0.145,-0.522,-0.522,27.6
$IMU,26862.823,-0.305,0.061,-0.122,0.01904,1.00097,0.15185,28.48
$IMU,26862.826,-0.244,-0.244,-0.061,0.01855,1.00244,0.15185,28.50
$IMU,26862.828,-0.183,-0.244,-0.183,0.02148,1.00292,0.14990,28.50
$IMU,26862.830,-0.122,-0.122,-0.183,0.01806,1.00439,0.15136,28.50
$MAG,26862.832,-0.148,-0.523,-0.522,27.6
$IMU,26862.833,-0.183,0.000,-0.244,0.01953,1.00341,0.15234,28.50
$IMU,26862.835,-0.244,0.000,-0.244,0.02001,1.00195,0.15429,28.50
$IMU,26862.837,-0.183,-0.061,-0.244,0.01611,1.00488,0.14990,28.50
$IMU,26862.840,-0.183,-0.122,-0.122,0.02001,1.00292,0.14941,28.50
$MAG,26862.842,-0.148,-0.523,-0.526,27.6
$IMU,26862.842,-0.183,-0.183,-0.183,0.02050,1.00439,0.15136,28.50
$IMU,26862.844,-0.183,-0.061,-0.122,0.01953,1.00439,0.15429,28.48
$IMU,26862.847,-0.183,-0.061,-0.122,0.01855,1.00292,0.15087,28.48
$IMU,26862.849,-0.244,0.061,-0.244,0.01757,1.00146,0.14990,28.48
$IMU,26862.851,-0.122,-0.183,-0.244,0.01708,1.00390,0.15185,28.48
$MAG,26862.852,-0.148,-0.528,-0.532,27.6
$IMU,26862.854,-0.305,0.061,-0.122,0.01757,1.00292,0.15283,28.48
$IMU,26862.856,-0.244,0.000,-0.183,0.01611,1.00341,0.15332,28.48
$IMU,26862.858,-0.244,0.000,-0.122,0.01660,1.00390,0.15136,28.48
$IMU,26862.861,-0.305,0.061,-0.061,0.01855,1.00341,0.15039,28.48
$MAG,26862.862,-0.153,-0.514,-0.531,27.6
$IMU,26862.863,-0.366,-0.061,-0.183,0.01757,1.00488,0.15087,28.50
$IMU,26862.865,-0.305,-0.122,-0.244,0.02001,1.00585,0.14941,28.50
$IMU,26862.868,-0.244,-0.183,-0.183,0.02197,1.00195,0.15185,28.50
$IMU,26862.870,-0.305,-0.183,-0.183,0.01708,1.00341,0.15039,28.50
$MAG,26862.873,-0.145,-0.517,-0.538,27.6
$IMU,26862.873,-0.366,0.000,-0.061,0.01660,0.99902,0.15087,28.50
$IMU,26862.875,-0.305,-0.061,-0.122,0.01904,1.00390,0.15087,28.50
$BARO,26862.876,86869.11,28.51
$IMU,26862.877,-0.305,-0.183,-0.122,0.01855,1.00146,0.14941,28.50
$IMU,26862.880,-0.366,-0.061,-0.122,0.01562,1.00390,0.15039,28.50
$IMU,26862.882,-0.366,-0.061,-0.122,0.01806,1.00244,0.15283,28.48
$MAG,26862.883,-0.144,-0.517,-0.537,27.6
$IMU,26862.884,-0.366,-0.122,-0.183,0.01953,1.00097,0.15332,28.48
$IMU,26862.887,-0.305,0.000,-0.244,0.01904,1.00341,0.14990,28.48
$IMU,26862.889,-0.366,0.000,-0.183,0.01757,1.00244,0.15185,28.48
$IMU,26862.891,-0.305,-0.183,-0.183,0.01757,1.00244,0.15283,28.48
$MAG,26862.893,-0.145,-0.522,-0.534,27.6
$IMU,26862.894,-0.305,-0.122,-0.183,0.01855,1.00292,0.15136,28.48
$IMU,26862.896,-0.366,-0.061,-0.183,0.01416,1.00244,0.14990,28.48
$IMU,26862.898,-0.427,0.000,-0.183,0.01855,1.00292,0.15234,28.48
$IMU,26862.901,-0.305,-0.061,-0.183,0.01757,1.00244,0.14941,28.50
$MAG,26862.903,-0.147,-0.517,-0.538,27.6
$IMU,26862.903,-0.244,-0.061,-0.183,0.02001,1.00341,0.14892,28.50
$IMU,26862.905,-0.244,-0.244,-0.183,0.02001,1.00292,0.15087,28.50
$IMU,26862.908,-0.183,0.000,-0.183,0.01757,1.00244,0.15136,28.50
$IMU,26862.910,-0.183,0.061,-0.183,0.01806,1.00292,0.14990,28.50
$IMU,26862.912,-0.183,-0.061,-0.183,0.01708,1.00195,0.15136,28.50
$MAG,26862.913,-0.138,-0.520,-0.535,27.6
$IMU,26862.915,-0.183,0.000,-0.183,0.01562,1.00341,0.15136,28.50
$IMU,26862.917,-0.183,-0.061,-0.244,0.01562,1.00146,0.15136,28.50
