$FLYS,1
$VAR,FIRMWARE_VER,v2024.12.30
$VAR,DEVICE_ID,0017003b3253501720373657
$VAR,SESSION_ID,b9cf8bf11f2f770c8bd7f21b
$COL,BARO,time,pressure,temperature
$UNIT,BARO,s,Pa,deg C
$COL,HUM,time,humidity,temperature
$UNIT,HUM,s,percent,deg C
$COL,MAG,time,x,y,z,temperature
$UNIT,MAG,s,gauss,gauss,gauss,deg C
$COL,IMU,time,wx,wy,wz,ax,ay,az,temperature
$UNIT,IMU,s,deg/s,deg/s,deg/s,g,g,g,deg C
$COL,TIME,time,tow,week
$UNIT,TIME,s,s,
$COL,VBAT,time,voltage
$UNIT,VBAT,s,volt
$DATA
$IMU,18322.831,8.789,-24.169,-33.203,-0.13867,0.78955,0.07031,27.67
$IMU,18322.833,-8.666,-18.554,-15.319,-0.19042,0.95410,0.10449,27.67
$IMU,18322.836,-3.845,-0.854,0.305,-0.20703,0.97460,0.13037,27.67
$IMU,18322.838,-0.305,-1.770,3.173,-0.22265,0.98876,0.14794,27.67
$IMU,18322.841,-2.197,-4.333,-6.774,-0.23388,1.00878,0.15966,27.67
$IMU,18322.843,7.629,1.464,-1.403,-0.24462,1.02685,0.17187,27.67
$IMU,18322.845,4.455,9.216,10.498,-0.24951,1.04589,0.17968,27.67
$IMU,18322.848,1.220,17.211,21.545,-0.25830,1.06445,0.19287,28.21
$IMU,18322.850,10.192,3.967,0.061,-0.26074,1.08691,0.21142,28.21
$IMU,18322.852,19.104,-8.300,-19.104,-0.25781,1.10253,0.23632,28.21
$IMU,18322.855,20.141,-7.568,-19.836,-0.24218,1.11572,0.26513,28.21
$IMU,18322.857,20.996,-6.896,-19.958,-0.22753,1.12988,0.28515,28.21
$IMU,18322.859,21.606,-6.774,-19.348,-0.21435,1.14843,0.30761,28.21
$IMU,18322.862,21.362,-7.934,-19.348,-0.19873,1.16943,0.32666,28.21
$IMU,18322.864,20.263,-10.131,-18.249,-0.18945,1.18457,0.34326,28.21
$IMU,18322.866,18.371,-13.183,-16.967,-0.18310,1.19628,0.35058,28.28
$IMU,18322.869,14.465,-16.479,-14.465,-0.17236,1.19677,0.35693,28.28
$IMU,18322.871,5.004,-17.578,-3.540,-0.16601,1.19335,0.36035,28.28
$IMU,18322.873,0.000,-20.263,-0.183,-0.15966,1.18603,0.35693,28.28
$IMU,18322.876,-3.662,-22.888,0.000,-0.15429,1.18457,0.34765,28.28
$IMU,18322.878,-6.774,-24.047,0.366,-0.15478,1.17089,0.33740,28.28
$IMU,18322.880,-9.094,-24.353,0.610,-0.15039,1.14355,0.32275,28.28
$IMU,18322.883,-10.681,-24.169,-0.244,-0.15087,1.12011,0.30566,28.28
$IMU,18322.885,-11.962,-23.010,-1.647,-0.15185,1.10205,0.29101,28.25
$IMU,18322.888,-13.000,-21.484,-2.990,-0.15673,1.09130,0.27490,28.25
$IMU,18322.890,-13.793,-20.507,-5.004,-0.16357,1.08544,0.25927,28.25
$IMU,18322.892,-15.075,-18.554,-7.263,-0.17431,1.07568,0.23925,28.25
$IMU,18322.895,-15.625,-17.761,-9.033,-0.18359,1.06201,0.21972,28.25
$IMU,18322.897,-15.991,-17.639,-10.620,-0.19189,1.04492,0.20605,28.25
$IMU,18322.899,-15.991,-17.333,-12.268,-0.19531,1.02441,0.17968,28.25
$IMU,18322.902,-15.380,-17.456,-13.000,-0.20068,0.99951,0.14599,28.25
$IMU,18322.904,-14.221,-18.493,-13.427,-0.20751,0.97607,0.11132,28.28
$IMU,18322.906,-12.512,-20.202,-13.854,-0.21435,0.95019,0.06933,28.28
$IMU,18322.909,-9.460,-22.277,-14.038,-0.20556,0.93505,0.01318,28.28
$IMU,18322.911,-4.699,-24.963,-13.610,-0.19873,0.92333,-0.02050,28.28
$IMU,18322.913,-0.732,-27.038,-13.671,-0.19726,0.88525,-0.02343,28.28
$IMU,18322.916,1.525,-29.174,-14.099,-0.16992,0.86474,-0.04003,28.28
$IMU,18322.918,3.601,-29.785,-13.061,-0.14257,0.86718,-0.07226,28.28
$IMU,18322.920,6.469,-29.174,-11.718,-0.12792,0.88867,-0.09863,28.28
$IMU,18322.923,9.643,-28.015,-10.864,-0.11035,0.91406,-0.11767,28.28
$IMU,18322.925,12.878,-26.916,-10.314,-0.08105,0.93798,-0.13085,28.28
$IMU,18322.927,16.540,-26.123,-9.521,-0.05175,0.94970,-0.14111,28.28
$IMU,18322.930,20.751,-25.878,-8.850,-0.02490,0.95996,-0.14746,28.28
$IMU,18322.932,25.451,-26.428,-7.873,-0.00732,0.97070,-0.15234,28.28
$IMU,18322.934,30.212,-27.648,-6.652,0.00878,0.99121,-0.14941,28.28
$IMU,18322.937,34.362,-29.541,-5.187,0.02050,1.00976,-0.13720,28.28
$IMU,18322.939,37.597,-31.311,-3.417,0.03125,1.03125,-0.12011,28.28
$IMU,18322.941,39.794,-32.897,-1.037,0.04150,1.05224,-0.10742,28.28
$IMU,18322.944,40.893,-33.874,1.342,0.05566,1.06201,-0.09521,28.28
$IMU,18322.946,40.527,-35.278,3.845,0.06054,1.08593,-0.08789,28.28
$IMU,18322.949,39.001,-36.682,6.164,0.04101,1.09814,-0.08984,28.28
$IMU,18322.951,37.780,-38.391,7.568,0.02197,1.09277,-0.09277,28.28
$IMU,18322.953,37.231,-39.978,8.178,-0.00732,1.08154,-0.08642,28.28
$IMU,18322.956,37.109,-40.832,8.239,-0.03564,1.07617,-0.07812,28.28
$IMU,18322.958,37.597,-40.954,8.483,-0.05371,1.08056,-0.05908,28.28
$IMU,18322.960,38.574,-39.489,8.422,-0.05810,1.07861,-0.04394,28.32
$IMU,18322.963,40.100,-36.682,8.422,-0.06005,1.08593,-0.02734,28.32
$IMU,18322.965,41.320,-33.142,8.300,-0.05419,1.09277,-0.01367,28.32
$IMU,18322.967,41.503,-29.602,7.751,-0.03662,1.11621,0.00976,28.32
$IMU,18322.970,40.344,-26.855,7.690,-0.00341,1.15283,0.04003,28.32
$IMU,18322.972,38.146,-24.047,7.995,0.03417,1.17431,0.05419,28.32
$IMU,18322.974,35.400,-19.958,7.873,0.06494,1.21191,0.06689,28.32
$IMU,18322.977,32.287,-15.625,7.507,0.10302,1.24267,0.07958,28.32
$IMU,18322.979,28.747,-12.207,7.507,0.13964,1.26464,0.08935,28.32
$IMU,18322.981,25.451,-10.437,8.178,0.16699,1.27343,0.09521,28.32
$IMU,18322.984,23.071,-9.948,8.911,0.18017,1.26367,0.09033,28.32
$IMU,18322.986,22.583,-10.253,9.216,0.18603,1.23876,0.07568,28.32
$IMU,18322.988,24.536,-10.803,8.850,0.17089,1.21093,0.05566,28.32
$IMU,18322.991,29.235,-12.451,9.155,0.15283,1.16259,0.01855,28.32
$IMU,18322.993,36.560,-10.498,7.446,0.11914,1.10009,-0.08496,28.32
$IMU,18322.995,47.607,-3.295,1.403,0.07666,1.25830,-0.09082,28.32
$IMU,18322.998,48.950,7.019,-12.023,0.06933,1.47167,-0.00195,28.29
$IMU,18323.000,45.227,16.174,-24.475,0.10839,1.25488,-0.07958,28.29
$IMU,18323.002,46.997,19.836,-26.184,0.08056,1.01025,-0.05322,28.29
$IMU,18323.005,50.354,18.676,-23.925,0.02246,0.96826,-0.04785,28.29
$IMU,18323.007,53.771,13.854,-22.521,0.00000,0.88964,-0.06542,28.29
$IMU,18323.009,54.687,9.460,-21.484,-0.00732,0.99023,0.02539,28.29
$IMU,18323.012,49.560,6.469,-21.667,0.01904,0.98437,0.02636,28.29
$IMU,18323.014,41.137,4.638,-19.958,0.02636,1.00390,0.09082,28.29
$IMU,18323.017,31.005,4.211,-18.493,0.00390,0.99609,0.07080,28.36
$IMU,18323.019,23.193,2.807,-17.822,-0.03906,0.99853,0.09082,28.36
$IMU,18323.021,14.404,1.953,-19.531,-0.05224,1.02050,0.08886,28.36
$IMU,18323.024,8.239,0.793,-21.118,-0.06054,0.96533,0.07958,28.36
$IMU,18323.026,3.906,1.098,-22.094,-0.08837,0.96630,0.07128,28.36
$IMU,18323.028,2.136,0.488,-23.742,-0.12597,0.95166,0.01464,28.36
$IMU,18323.031,2.380,0.122,-24.963,-0.10400,0.94580,0.05078,28.36
$IMU,18323.033,2.685,0.061,-22.644,-0.09326,0.94531,-0.03125,28.36
$IMU,18323.035,5.310,-3.295,-16.357,-0.08544,0.96972,-0.02294,28.32
$IMU,18323.038,3.295,-10.314,-4.638,-0.11621,0.97900,0.00781,28.32
$IMU,18323.040,-2.624,-17.639,1.892,-0.08349,0.91455,0.06054,28.32
$IMU,18323.042,-7.690,-23.132,5.798,-0.05664,0.89697,0.06640,28.32
$IMU,18323.045,-9.826,-21.667,2.746,-0.02197,0.92138,0.17871,28.32
$IMU,18323.047,-20.202,-19.348,0.671,0.02832,0.93701,0.19580,28.32
$IMU,18323.049,-27.587,-19.775,1.892,0.01416,0.98339,0.12255,28.32
$IMU,18323.052,-30.517,-17.883,1.342,0.03662,1.06298,0.16601,28.32
$IMU,18323.054,-35.522,-15.808,0.366,0.05224,1.06542,0.12841,28.33
$IMU,18323.056,-36.254,-13.732,-0.915,0.01367,1.06250,0.05859,28.33
$IMU,18323.059,-33.935,-15.441,-2.197,-0.00585,1.08398,0.01562,28.33
$IMU,18323.061,-31.311,-19.653,-1.831,-0.00634,1.09765,0.00195,28.33
$IMU,18323.063,-29.235,-23.193,-0.732,0.00097,1.08300,0.02441,28.33
$IMU,18323.066,-26.916,-24.597,0.244,0.01562,1.08496,0.07373,28.33
$IMU,18323.068,-24.780,-21.911,0.793,0.02929,1.10498,0.13867,28.33
$IMU,18323.070,-22.033,-17.150,0.549,0.02392,1.11474,0.15576,28.33
$BARO,18323.071,86922.00,28.80
$IMU,18323.073,-18.310,-14.038,-0.061,0.02783,1.11230,0.16650,28.34
$IMU,18323.075,-14.221,-10.803,-0.854,0.02539,1.09472,0.17968,28.34
$MAG,18323.078,-0.280,-0.454,-0.213,-40.7
$IMU,18323.078,-9.948,-8.666,-1.708,0.01757,1.07519,0.15820,28.34
$IMU,18323.080,-5.676,-8.056,-2.380,-0.00341,1.06396,0.12597,28.34
$IMU,18323.082,-1.525,-9.094,-2.563,-0.01318,1.06250,0.09716,28.34
$IMU,18323.085,1.220,-10.131,-2.441,-0.02539,1.05957,0.07177,28.34
$IMU,18323.087,2.380,-11.413,-2.441,-0.04980,1.05859,0.04687,28.34
$MAG,18323.088,-0.333,-0.532,-0.255,27.2
$IMU,18323.089,2.197,-12.817,-2.075,-0.05419,1.04931,0.03125,28.34
$IMU,18323.092,1.647,-14.465,-1.403,-0.07617,1.03759,-0.00732,28.33
$IMU,18323.094,1.586,-17.700,-0.854,-0.09375,1.02246,-0.01806,28.33
$IMU,18323.096,1.220,-20.202,-0.366,-0.09521,1.00097,0.00390,28.33
$MAG,18323.098,-0.324,-0.532,-0.249,27.3
$IMU,18323.099,0.000,-19.592,0.915,-0.09033,0.98486,0.02539,28.33
$IMU,18323.101,-1.159,-16.906,2.075,-0.08007,0.98144,0.05078,28.33
$IMU,18323.103,-3.051,-11.474,2.868,-0.05419,0.97705,0.06640,28.33
$IMU,18323.106,-4.333,-5.737,2.929,-0.06445,0.97558,0.04394,28.33
$MAG,18323.108,-0.331,-0.523,-0.253,27.5
$IMU,18323.108,-3.967,-2.197,1.770,-0.05029,0.97705,0.03320,28.33
$IMU,18323.110,-3.417,-0.183,1.708,-0.02978,0.98193,0.03515,28.32
$IMU,18323.113,-3.295,1.464,1.159,-0.07275,0.98339,0.01416,28.32
$IMU,18323.115,-0.915,2.929,-2.258,-0.08935,0.96435,-0.00439,28.32
$HUM,18323.116,61.1,29.2
$IMU,18323.117,2.563,5.065,-3.051,-0.06152,0.95849,0.01855,28.32
$MAG,18323.118,-0.337,-0.522,-0.262,27.5
$IMU,18323.120,5.615,8.422,-1.586,-0.06396,0.97460,0.02001,28.32
$IMU,18323.122,7.812,9.704,-1.708,-0.08056,0.99414,0.01513,28.32
$IMU,18323.124,10.009,8.972,-3.051,-0.03076,0.97021,0.02099,28.32
$IMU,18323.127,12.939,9.338,-1.342,0.06005,0.95751,0.06103,28.32
$MAG,18323.128,-0.328,-0.534,-0.261,27.5
$IMU,18323.129,11.962,10.375,1.281,0.04882,1.00292,0.09082,28.37
$IMU,18323.131,8.117,7.629,0.549,0.07421,1.00195,0.07568,28.37
$IMU,18323.134,6.225,5.920,0.183,0.12451,0.99804,0.09570,28.37
$IMU,18323.136,5.249,6.530,0.732,0.11523,1.01757,0.08349,28.37
$MAG,18323.138,-0.337,-0.525,-0.250,27.5
$IMU,18323.139,4.516,5.737,0.488,0.14550,1.01806,0.08544,28.37
$IMU,18323.141,3.417,3.967,1.037,0.15478,1.01367,0.08251,28.37
$IMU,18323.143,2.685,1.586,1.281,0.13671,1.01464,0.07324,28.37
$IMU,18323.146,3.051,0.061,-0.671,0.07568,1.02294,0.06933,28.37
$MAG,18323.148,-0.334,-0.525,-0.249,27.3
$IMU,18323.148,4.760,0.122,-2.990,0.03320,1.00927,0.07080,28.36
$IMU,18323.150,6.591,0.061,-3.112,0.00195,1.00097,0.07958,28.36
$IMU,18323.153,8.544,0.061,-1.953,-0.00341,1.00390,0.08837,28.36
$IMU,18323.155,10.620,0.000,-1.037,-0.00097,1.00683,0.09179,28.36
$IMU,18323.157,13.000,-0.061,-1.098,0.00537,1.01220,0.09082,28.36
$MAG,18323.158,-0.328,-0.525,-0.252,27.5
$IMU,18323.160,15.258,-0.122,-1.770,0.00781,1.01806,0.08251,28.36
$IMU,18323.162,17.272,-0.305,-2.441,0.00097,1.01367,0.07226,28.36
$IMU,18323.164,18.920,-0.122,-2.624,-0.00439,0.99365,0.06738,28.36
$IMU,18323.167,20.141,-0.183,-2.624,-0.00781,0.98388,0.06250,28.34
$MAG,18323.169,-0.325,-0.516,-0.246,27.6
$IMU,18323.169,20.935,-0.305,-2.380,-0.01074,0.98974,0.05566,28.34
$IMU,18323.171,21.301,-0.427,-2.258,-0.01416,0.98779,0.05126,28.34
$BARO,18323.173,86929.39,28.80
$IMU,18323.174,21.301,-0.549,-2.380,-0.02197,0.99072,0.04394,28.34
$IMU,18323.176,20.996,-0.549,-2.624,-0.02294,0.99218,0.03955,28.34
$IMU,18323.178,20.385,-0.427,-2.624,-0.02587,0.99609,0.03222,28.34
$MAG,18323.179,-0.330,-0.523,-0.252,27.3
$IMU,18323.181,20.080,-0.427,-2.380,-0.02734,0.99511,0.02978,28.34
$IMU,18323.183,19.714,-0.488,-1.892,-0.02783,1.00341,0.02978,28.34
$IMU,18323.185,19.409,-0.427,-1.403,-0.01904,1.02392,0.03027,28.33
$IMU,18323.188,18.798,-0.244,-1.098,-0.01806,1.03906,0.02880,28.33
$MAG,18323.189,-0.328,-0.526,-0.237,27.3
$IMU,18323.190,18.432,-0.183,-0.793,-0.01562,1.04101,0.02587,28.33
$IMU,18323.192,17.944,-0.244,-0.549,-0.01171,1.04687,0.02197,28.33
$IMU,18323.195,17.211,-0.305,-0.427,-0.00634,1.06347,0.01074,28.33
$IMU,18323.197,16.479,-0.244,-0.366,-0.00585,1.06640,-0.00195,28.33
$MAG,18323.199,-0.325,-0.522,-0.244,27.5
$IMU,18323.200,15.258,-0.366,-0.427,-0.00439,1.07177,-0.01562,28.33
$IMU,18323.202,13.427,-0.305,-0.183,-0.00781,1.08203,-0.03320,28.33
$IMU,18323.204,10.925,-0.366,0.122,-0.01269,1.08789,-0.05029,28.37
$IMU,18323.207,7.873,-0.427,0.488,-0.01220,1.09619,-0.06835,28.37
$MAG,18323.209,-0.328,-0.519,-0.240,27.5
$IMU,18323.209,4.516,-0.488,0.549,-0.00830,1.09619,-0.08300,28.37
$IMU,18323.211,0.366,-0.488,0.366,-0.00683,1.10644,-0.07324,28.37
$IMU,18323.214,-5.065,-0.366,0.732,0.02294,1.08007,-0.09716,28.37
$IMU,18323.216,-8.850,0.000,-0.122,0.02294,1.09521,-0.08251,28.37
$IMU,18323.218,-12.878,-0.183,-1.647,0.01953,1.05908,-0.07226,28.37
$MAG,18323.219,-0.319,-0.517,-0.244,27.5
$IMU,18323.221,-16.052,-0.305,-2.197,0.00781,1.06250,-0.05126,28.37
$IMU,18323.223,-17.883,-0.244,-2.136,0.00341,1.04833,-0.04345,28.41
$IMU,18323.225,-18.310,-0.183,-2.258,0.01611,1.01708,-0.01513,28.41
$IMU,18323.228,-18.798,-0.183,-2.868,-0.00927,0.98339,0.00341,28.41
$MAG,18323.229,-0.330,-0.519,-0.240,27.5
$IMU,18323.230,-18.859,-0.183,-2.685,-0.00048,1.02099,-0.00585,28.41
$IMU,18323.232,-18.615,-0.061,-2.258,-0.00292,1.00292,0.00439,28.41
$IMU,18323.235,-18.981,-0.122,-2.197,-0.00146,0.97607,0.00585,28.41
$IMU,18323.237,-19.531,-0.122,-1.953,0.00097,0.99218,-0.00048,28.41
$MAG,18323.239,-0.328,-0.526,-0.243,27.5
$IMU,18323.239,-20.080,-0.061,-2.075,-0.00830,0.98486,0.00634,28.41
$IMU,18323.242,-21.057,-0.122,-2.075,-0.01708,0.99707,0.01123,28.37
$IMU,18323.244,-21.972,-0.061,-1.403,-0.03076,0.98876,0.01074,28.37
$IMU,18323.246,-22.521,-0.244,-0.305,-0.02978,0.99121,0.03076,28.37
$MAG,18323.249,-0.336,-0.529,-0.247,27.6
$IMU,18323.249,-23.010,-0.305,0.122,-0.03173,0.99853,0.03417,28.37
$IMU,18323.251,-22.766,-0.244,0.488,-0.02441,1.00537,0.04248,28.37
$IMU,18323.253,-22.583,-0.305,0.366,-0.02050,1.02050,0.04589,28.37
$IMU,18323.256,-22.155,-0.305,0.061,-0.01708,1.00683,0.04736,28.37
$IMU,18323.258,-21.850,-0.366,0.000,-0.01513,1.00634,0.04589,28.37
$MAG,18323.259,-0.331,-0.523,-0.255,27.6
$IMU,18323.261,-21.606,-0.427,-0.122,-0.01953,1.00927,0.04296,28.36
$IMU,18323.263,-21.362,-0.732,0.366,-0.02832,1.01904,0.04345,28.36
$IMU,18323.265,-21.240,-0.976,1.220,-0.02441,1.02587,0.04589,28.36
$IMU,18323.268,-20.385,-1.281,2.014,-0.02783,1.03125,0.05517,28.36
$MAG,18323.269,-0.319,-0.534,-0.243,27.6
$IMU,18323.270,-19.409,-1.342,2.563,-0.01513,1.03515,0.06494,28.36
$IMU,18323.272,-18.066,-1.220,2.197,-0.00244,1.03027,0.07031,28.36
$BARO,18323.275,86925.71,28.81
$IMU,18323.275,-16.601,-0.915,1.403,-0.00439,1.02734,0.07128,28.36
$IMU,18323.277,-14.648,-0.976,0.793,-0.00585,1.01171,0.07080,28.36
$IMU,18323.279,-12.207,-1.464,0.549,-0.00195,1.01513,0.07226,28.38
$MAG,18323.280,-0.328,-0.522,-0.256,27.5
$IMU,18323.282,-9.582,-3.295,0.671,0.00927,1.01708,0.05908,28.38
$IMU,18323.284,-7.385,-7.385,1.281,0.03710,1.00244,0.04003,28.38
$IMU,18323.286,-5.676,-13.305,1.708,0.06005,1.00244,0.03173,28.38
$IMU,18323.289,-3.967,-19.104,0.549,0.05566,1.00097,0.02880,28.38
$MAG,18323.290,-0.330,-0.529,-0.259,27.5
$IMU,18323.291,-2.563,-23.498,-0.854,0.05224,0.99902,0.04589,28.38
$IMU,18323.293,-1.892,-26.306,-1.525,0.03955,1.00146,0.04833,28.38
$IMU,18323.296,-1.159,-29.174,-1.708,0.01562,1.01171,0.04150,28.38
$IMU,18323.298,0.305,-31.616,-2.014,0.00292,1.00292,0.04833,28.36
$MAG,18323.300,-0.330,-0.525,-0.244,27.6
$IMU,18323.300,0.732,-32.653,-2.136,-0.03027,1.01074,0.08007,28.36
$IMU,18323.303,1.586,-29.968,-3.356,-0.05615,1.01660,0.06396,28.36
$IMU,18323.305,3.723,-25.695,-3.601,-0.06201,1.01611,0.06738,28.36
$IMU,18323.307,4.760,-22.399,-2.380,-0.06738,1.01562,0.07031,28.36
$MAG,18323.310,-0.328,-0.528,-0.253,27.5
$IMU,18323.310,5.126,-19.104,-1.281,-0.07031,1.02685,0.06933,28.36
$IMU,18323.312,5.371,-14.892,-0.793,-0.06445,1.03759,0.07763,28.36
$IMU,18323.314,4.882,-9.338,-0.122,-0.06054,1.03955,0.08251,28.36
$IMU,18323.317,3.967,-2.807,0.305,-0.05322,1.03076,0.06054,28.37
$IMU,18323.319,3.295,-0.183,0.915,-0.03417,1.02587,0.02343,28.37
$MAG,18323.320,-0.330,-0.526,-0.256,27.6
$IMU,18323.322,2.258,-0.122,1.098,-0.01513,1.02587,0.01464,28.37
$IMU,18323.324,0.671,-0.061,0.488,-0.01220,1.01806,0.00292,28.37
$IMU,18323.326,-1.281,-0.061,-0.305,-0.01074,1.01269,-0.00585,28.37
$IMU,18323.329,-3.417,-0.183,-0.549,-0.02148,1.00292,-0.01318,28.37
$MAG,18323.330,-0.322,-0.526,-0.253,27.5
$IMU,18323.331,-5.432,-0.183,0.061,-0.02294,0.98828,-0.01269,28.37
$IMU,18323.333,-7.568,-0.244,0.976,-0.01904,0.99902,-0.01464,28.37
$IMU,18323.336,-9.765,-0.488,1.464,-0.01025,1.01757,-0.01416,28.35
$IMU,18323.338,-11.779,-0.732,1.464,-0.00439,1.02441,-0.01123,28.35
$MAG,18323.340,-0.328,-0.529,-0.259,27.6
$IMU,18323.340,-13.366,-1.464,1.098,-0.00390,1.02392,-0.01269,28.35
$IMU,18323.343,-14.221,-3.234,0.610,-0.00634,1.02441,-0.00781,28.35
$IMU,18323.345,-14.526,-5.554,0.366,-0.00634,1.01904,0.00830,28.35
$IMU,18323.347,-14.770,-6.835,0.366,-0.01660,1.00830,0.02099,28.35
$MAG,18323.350,-0.330,-0.525,-0.256,27.6
$IMU,18323.350,-14.953,-7.934,0.427,-0.01220,1.00976,0.04052,28.35
$IMU,18323.352,-15.747,-6.408,0.549,0.01416,1.01953,0.07666,28.35
$IMU,18323.354,-16.479,-2.563,0.732,0.01025,1.03027,0.07666,28.39
$IMU,18323.357,-16.235,-0.915,0.732,-0.00195,1.02832,0.06884,28.39
$IMU,18323.359,-15.380,-1.342,0.061,-0.00732,1.01367,0.07128,28.39
$MAG,18323.360,-0.334,-0.534,-0.261,27.6
$IMU,18323.361,-14.099,-1.953,-0.671,-0.00146,0.98583,0.07714,28.39
$IMU,18323.364,-12.268,-1.892,-1.464,0.00830,0.95605,0.08544,28.39
$IMU,18323.366,-10.070,-1.281,-1.770,0.00244,0.97314,0.09423,28.39
$IMU,18323.368,-7.324,-0.854,-1.403,-0.00292,0.98925,0.09716,28.39
$MAG,18323.370,-0.327,-0.522,-0.252,27.6
$IMU,18323.371,-4.638,-0.427,-0.915,-0.00488,1.00097,0.10107,28.39
$IMU,18323.373,-2.075,-0.366,-0.488,-0.00244,1.00878,0.10009,28.35
$IMU,18323.375,0.305,-0.061,-0.549,0.00634,1.01855,0.09521,28.35
$BARO,18323.376,86919.66,28.81
$IMU,18323.378,2.258,-0.183,-1.037,0.00585,1.01367,0.08789,28.35
$MAG,18323.380,-0.331,-0.529,-0.258,27.6
$IMU,18323.380,3.906,-0.061,-1.586,-0.00048,1.01171,0.08740,28.35
$IMU,18323.383,5.432,0.122,-1.831,-0.00781,1.01318,0.08154,28.35
$IMU,18323.385,6.530,0.000,-1.586,-0.01074,1.01904,0.07470,28.35
$IMU,18323.387,7.263,0.061,-1.281,-0.00585,1.02148,0.06787,28.35
$IMU,18323.390,7.934,0.122,-1.220,-0.00781,1.03222,0.06396,28.35
$MAG,18323.391,-0.328,-0.525,-0.264,27.6
$IMU,18323.392,8.178,0.183,-1.098,-0.01025,1.02685,0.06201,28.39
$IMU,18323.394,8.300,0.000,-0.976,-0.00488,1.01513,0.05957,28.39
$IMU,18323.397,8.300,0.061,-0.976,-0.00634,1.00634,0.05517,28.39
$IMU,18323.399,8.422,0.061,-1.098,-0.00927,1.00244,0.06005,28.39
$MAG,18323.401,-0.324,-0.528,-0.258,27.3
$IMU,18323.401,8.544,0.122,-1.098,-0.01269,1.00195,0.05712,28.39
$IMU,18323.404,8.911,-0.061,-1.098,-0.01757,1.00097,0.05761,28.39
$IMU,18323.406,9.094,0.122,-0.976,-0.01416,1.00195,0.05566,28.39
$IMU,18323.408,9.338,0.183,-0.610,-0.01562,1.00000,0.05615,28.39
$MAG,18323.411,-0.327,-0.526,-0.249,27.6
$IMU,18323.411,9.887,-0.061,-0.305,-0.01660,0.99316,0.05371,28.41
$IMU,18323.413,10.498,0.061,0.000,-0.01708,0.97998,0.05859,28.41
$IMU,18323.415,11.169,0.000,0.183,-0.02001,0.98046,0.05908,28.41
$IMU,18323.418,12.023,-0.122,0.305,-0.01904,0.98681,0.05517,28.41
$IMU,18323.420,12.817,0.000,0.244,-0.01464,0.98876,0.05175,28.41
$MAG,18323.421,-0.333,-0.534,-0.261,27.6
$IMU,18323.422,13.427,0.000,0.000,-0.01269,0.99365,0.05029,28.41
$IMU,18323.425,14.038,-0.122,-0.366,-0.00976,0.99511,0.05029,28.41
$IMU,18323.427,14.404,0.000,-0.854,-0.01025,0.98339,0.04687,28.41
$IMU,18323.429,14.404,-0.061,-1.281,-0.01269,0.97656,0.03662,28.37
$MAG,18323.431,-0.328,-0.529,-0.258,27.6
$IMU,18323.432,13.854,0.000,-1.281,-0.01416,0.97558,0.02246,28.37
$IMU,18323.434,13.000,0.122,-0.976,-0.01953,0.98193,0.01318,28.37
$IMU,18323.436,12.145,0.000,-0.732,-0.02050,0.99804,0.00732,28.37
$IMU,18323.439,11.047,0.061,-0.671,-0.02392,1.00341,0.00732,28.37
$MAG,18323.441,-0.322,-0.525,-0.256,27.6
$IMU,18323.441,9.704,-0.061,-0.488,-0.01904,1.00488,0.00732,28.37
$IMU,18323.443,8.178,-0.061,-0.610,-0.01464,1.01318,0.00976,28.37
$IMU,18323.446,6.591,0.000,-1.037,-0.00781,1.02636,0.01269,28.37
$IMU,18323.448,5.126,0.000,-1.525,-0.00585,1.03369,0.01367,28.41
$MAG,18323.451,-0.328,-0.522,-0.247,27.6
$IMU,18323.451,3.723,0.183,-2.136,-0.00781,1.04296,0.01367,28.41
$IMU,18323.453,2.563,0.000,-2.502,-0.00781,1.05224,0.01123,28.41
$IMU,18323.455,1.342,0.000,-2.624,-0.01220,1.04101,0.00878,28.41
$IMU,18323.458,0.000,-0.061,-2.380,-0.01318,1.03271,0.00683,28.41
$IMU,18323.460,-1.342,0.000,-1.953,-0.01464,1.02832,0.00439,28.41
$MAG,18323.461,-0.327,-0.528,-0.249,27.7
$IMU,18323.462,-2.807,0.000,-1.464,-0.01367,1.01708,0.00292,28.41
$IMU,18323.465,-4.272,0.000,-0.915,-0.01171,1.01220,0.00146,28.41
$IMU,18323.467,-5.554,-0.122,-0.732,-0.00341,0.99902,0.00390,28.42
$IMU,18323.469,-7.019,0.061,-0.915,-0.00439,0.98876,0.00634,28.42
$MAG,18323.471,-0.312,-0.531,-0.255,27.6
$IMU,18323.472,-8.300,0.122,-0.976,-0.00244,0.99072,0.00585,28.42
$IMU,18323.474,-9.521,0.183,-0.854,0.00048,1.00488,0.00146,28.42
$IMU,18323.476,-10.559,0.122,-0.793,0.00244,1.00830,0.00292,28.42
$BARO,18323.478,86919.22,28.81
$IMU,18323.479,-11.779,-0.183,-0.915,0.00195,1.00683,0.00830,28.42
$MAG,18323.481,-0.324,-0.519,-0.253,27.6
$IMU,18323.481,-13.000,-0.183,-1.220,-0.00830,1.00537,0.00878,28.42
$IMU,18323.483,-14.221,0.000,-1.464,-0.01611,1.00244,0.01318,28.42
$IMU,18323.486,-15.319,-0.061,-1.159,-0.02929,1.00537,0.02050,28.38
$IMU,18323.488,-16.235,0.061,-0.244,-0.03125,0.99609,0.02880,28.38
$IMU,18323.490,-16.540,-0.122,0.671,-0.02734,0.99902,0.03613,28.38
$MAG,18323.491,-0.324,-0.526,-0.261,27.6
$IMU,18323.493,-16.540,-0.549,1.342,-0.02246,1.00927,0.04541,28.38
$IMU,18323.495,-16.357,-1.159,1.831,-0.01611,1.01904,0.05175,28.38
$IMU,18323.497,-15.563,-2.014,2.014,-0.00537,1.02636,0.06005,28.38
$IMU,18323.500,-14.587,-1.953,1.831,-0.00585,1.03320,0.06640,28.38
$MAG,18323.502,-0.318,-0.529,-0.258,27.6
$IMU,18323.502,-13.427,-2.197,1.525,-0.00341,1.03613,0.07324,28.38
$IMU,18323.504,-12.329,-2.868,1.342,-0.00390,1.04345,0.07763,28.41
$IMU,18323.507,-10.925,-4.089,1.281,-0.01074,1.05126,0.08105,28.41
$IMU,18323.509,-9.582,-5.126,1.342,-0.00390,1.05419,0.08300,28.41
$MAG,18323.512,-0.333,-0.529,-0.255,27.6
$IMU,18323.512,-7.873,-5.065,1.281,-0.00683,1.04980,0.08740,28.41
$IMU,18323.514,-6.042,-4.699,1.220,-0.00488,1.04833,0.08544,28.41
$IMU,18323.516,-4.272,-5.126,1.098,0.00292,1.04882,0.08251,28.41
$IMU,18323.519,-2.197,-4.333,0.793,0.00878,1.04492,0.08691,28.41
$IMU,18323.521,0.610,-1.770,0.366,0.01123,1.04003,0.08593,28.41
$MAG,18323.522,-0.313,-0.528,-0.264,27.6
$IMU,18323.523,2.929,-0.122,-0.244,0.00585,1.03808,0.08251,28.41
$IMU,18323.526,4.516,-0.244,-0.732,0.00390,1.03076,0.08105,28.41
$IMU,18323.528,5.981,-0.183,-1.159,-0.00146,1.01757,0.07763,28.41
$IMU,18323.530,7.446,-0.183,-1.647,-0.00390,1.00439,0.07470,28.41
$MAG,18323.532,-0.321,-0.525,-0.262,27.6
$IMU,18323.533,8.789,-0.122,-1.892,-0.01025,0.99414,0.07031,28.41
$IMU,18323.535,10.070,0.061,-2.014,-0.01269,0.98486,0.06689,28.41
$IMU,18323.537,11.169,0.183,-1.892,-0.01367,0.98437,0.06298,28.41
$IMU,18323.540,12.207,-0.061,-1.647,-0.01269,0.98242,0.05908,28.41
$MAG,18323.542,-0.333,-0.523,-0.255,27.5
$IMU,18323.542,13.122,-0.366,-1.586,-0.01074,0.98437,0.05224,28.42
$IMU,18323.544,13.793,-0.427,-1.525,-0.00830,0.98535,0.04492,28.42
$IMU,18323.547,14.221,-0.427,-1.831,-0.01171,0.97656,0.03613,28.42
$IMU,18323.549,14.587,-0.488,-2.380,-0.02392,0.96435,0.02734,28.42
$IMU,18323.551,14.526,-0.427,-2.685,-0.03564,0.97656,0.02197,28.42
$MAG,18323.552,-0.319,-0.528,-0.258,27.5
$IMU,18323.554,14.221,-0.488,-1.831,-0.04394,0.99951,0.01416,28.42
$IMU,18323.556,13.488,-0.549,-0.183,-0.04492,1.01025,0.00976,28.42
$IMU,18323.558,12.268,-0.427,1.220,-0.03417,1.00585,0.00732,28.42
$IMU,18323.561,10.681,-0.183,1.892,-0.02001,1.01025,0.00439,28.41
$MAG,18323.562,-0.327,-0.528,-0.255,27.6
$IMU,18323.563,9.155,-0.183,1.647,-0.00341,1.00585,0.00048,28.41
$IMU,18323.565,7.446,-0.183,0.793,0.00439,1.00439,0.00244,28.41
$IMU,18323.568,5.676,-0.183,0.000,0.00341,1.00195,-0.00341,28.41
$IMU,18323.570,3.784,-0.122,-0.427,0.00292,1.00585,-0.00390,28.41
$MAG,18323.572,-0.322,-0.523,-0.258,27.6
$IMU,18323.573,1.586,-0.061,-0.671,0.00097,0.99804,-0.00439,28.41
$IMU,18323.575,-0.854,-0.183,-0.915,0.00048,0.98388,-0.00390,28.41
$IMU,18323.577,-3.356,-0.183,-1.403,-0.00048,0.96582,-0.00439,28.41
$BARO,18323.579,86935.75,28.81
$IMU,18323.580,-5.920,-0.122,-1.892,-0.00146,0.96240,-0.00585,28.41
$MAG,18323.582,-0.325,-0.529,-0.253,27.6
$IMU,18323.582,-8.361,-0.244,-1.953,-0.01123,0.97656,-0.00585,28.41
$IMU,18323.584,-10.925,-0.244,-1.525,-0.01367,0.98779,-0.00927,28.41
$IMU,18323.587,-13.610,-0.183,-1.037,-0.02099,1.00048,-0.00732,28.41
$IMU,18323.589,-16.235,-0.061,-0.549,-0.01904,1.01318,-0.00830,28.41
$IMU,18323.591,-18.981,-0.183,-0.244,-0.02636,1.02050,-0.00048,28.41
$MAG,18323.592,-0.321,-0.526,-0.258,27.5
$IMU,18323.594,-21.301,-0.610,0.427,-0.03320,1.02197,0.00878,28.41
$IMU,18323.596,-23.254,-1.525,1.281,-0.03808,1.00146,0.01757,28.41
$IMU,18323.598,-24.169,-2.441,2.563,-0.04052,0.97509,0.03027,28.41
$IMU,18323.601,-23.986,-2.380,3.967,-0.03320,0.98193,0.04833,28.41
$MAG,18323.603,-0.330,-0.529,-0.258,27.6
$IMU,18323.603,-22.583,-1.586,4.821,-0.02050,1.00634,0.06787,28.41
$IMU,18323.605,-20.935,-0.976,4.699,-0.00927,1.02783,0.07763,28.41
$IMU,18323.608,-19.409,-0.976,4.150,0.00000,1.02880,0.09033,28.41
$IMU,18323.610,-17.517,-0.610,3.723,-0.00048,1.02294,0.09472,28.41
$IMU,18323.612,-15.441,-0.305,3.662,-0.00292,1.01904,0.09423,28.41
$MAG,18323.613,-0.330,-0.523,-0.261,27.6
$IMU,18323.615,-13.427,-0.366,3.784,0.00146,1.02050,0.09375,28.41
$IMU,18323.617,-11.291,-0.366,3.601,-0.00146,1.02832,0.09472,28.40
$IMU,18323.619,-9.216,-0.427,3.051,0.00390,1.04345,0.09570,28.40
$IMU,18323.622,-7.202,-0.305,2.258,0.00292,1.05566,0.09716,28.40
$MAG,18323.623,-0.321,-0.538,-0.259,27.6
$IMU,18323.624,-5.126,-0.305,1.464,-0.00146,1.06347,0.09667,28.40
$IMU,18323.626,-3.295,-0.122,0.732,-0.00146,1.06396,0.10009,28.40
$IMU,18323.629,-1.342,-0.183,0.000,-0.00195,1.06396,0.10009,28.40
$IMU,18323.631,0.488,-0.061,-0.244,-0.00781,1.06542,0.09960,28.40
$MAG,18323.633,-0.321,-0.528,-0.259,27.5
$IMU,18323.634,2.380,-0.122,-0.305,-0.00976,1.06005,0.10009,28.40
$IMU,18323.636,4.211,-0.061,-0.305,-0.01171,1.05078,0.09326,28.49
$IMU,18323.638,6.042,0.061,-0.244,-0.01220,1.04492,0.09277,28.49
$IMU,18323.641,7.934,-0.061,-0.305,-0.00878,1.03369,0.08935,28.49
$MAG,18323.643,-0.325,-0.528,-0.256,27.6
$IMU,18323.643,9.826,-0.122,-0.366,-0.00488,1.02001,0.08447,28.49
$IMU,18323.645,11.474,0.000,-0.610,0.00000,1.01171,0.07958,28.49
$IMU,18323.648,13.122,-0.061,-1.159,0.00390,0.99951,0.07617,28.49
$IMU,18323.650,14.709,-0.122,-1.647,0.00683,0.99267,0.07128,28.49
$IMU,18323.652,16.052,0.000,-2.197,0.00000,0.99169,0.06591,28.49
$MAG,18323.653,-0.321,-0.529,-0.252,27.5
$IMU,18323.655,17.150,-0.061,-2.441,-0.00244,0.99658,0.05371,28.41
$IMU,18323.657,17.761,-0.122,-2.441,-0.01318,0.99853,0.04638,28.41
$IMU,18323.659,17.761,-0.061,-2.319,-0.01464,1.00195,0.03320,28.41
$IMU,18323.662,17.089,0.122,-1.953,-0.01904,1.01367,0.02050,28.41
$MAG,18323.663,-0.328,-0.532,-0.252,27.6
$IMU,18323.664,15.808,0.000,-1.403,-0.02246,1.01220,0.01220,28.41
$IMU,18323.666,14.160,-0.244,-0.793,-0.02587,1.01562,0.00537,28.41
$IMU,18323.669,12.023,-0.305,-0.122,-0.02294,1.01855,-0.00244,28.41
$IMU,18323.671,9.460,-0.122,0.183,-0.01611,1.01757,-0.00634,28.41
$IMU,18323.673,6.958,-0.244,0.305,-0.01025,1.02099,-0.01123,28.42
$MAG,18323.673,-0.319,-0.525,-0.259,27.6
$IMU,18323.676,4.272,-0.183,0.366,-0.00830,1.01562,-0.00830,28.42
$IMU,18323.678,1.525,0.061,0.366,-0.00927,1.01171,-0.00878,28.42
$BARO,18323.680,86923.24,28.81
$IMU,18323.680,-0.976,-0.122,0.427,-0.00927,1.00341,-0.00585,28.42
$MAG,18323.683,-0.325,-0.519,-0.259,27.6
$IMU,18323.683,-3.234,-0.122,0.671,-0.01318,0.99853,-0.00292,28.42
$IMU,18323.685,-5.371,0.000,1.098,-0.01464,0.99414,0.00439,28.42
$IMU,18323.687,-7.202,0.000,1.403,-0.01513,0.98876,0.00976,28.42
$IMU,18323.690,-8.483,-0.244,1.708,-0.01464,0.98681,0.01806,28.42
$IMU,18323.692,-9.582,-0.183,1.770,-0.00878,0.98388,0.02587,28.39
$MAG,18323.693,-0.331,-0.532,-0.256,27.6
$IMU,18323.695,-10.559,0.061,1.708,-0.00634,0.97900,0.03125,28.39
$IMU,18323.697,-10.681,-0.061,1.525,-0.00585,0.97851,0.03808,28.39
$IMU,18323.699,-10.375,-0.122,1.342,-0.00732,0.98095,0.04296,28.39
$IMU,18323.702,-9.582,-0.122,0.976,-0.00683,0.98291,0.05126,28.39
$MAG,18323.703,-0.333,-0.535,-0.258,27.6
$IMU,18323.704,-8.666,-0.122,0.732,-0.01123,0.98583,0.05664,28.39
$IMU,18323.706,-7.507,0.000,0.366,-0.00781,1.00048,0.06054,28.39
$IMU,18323.709,-6.042,-0.122,-0.061,-0.00830,1.01611,0.06494,28.39
$IMU,18323.711,-4.638,-0.244,-0.488,-0.00732,1.02636,0.06787,28.43
$IMU,18323.713,-3.173,-0.305,-0.793,-0.00683,1.03222,0.07080,28.43
$MAG,18323.714,-0.316,-0.526,-0.258,27.6
$IMU,18323.716,-1.953,0.000,-0.976,-0.00830,1.03076,0.07617,28.43
$IMU,18323.718,-0.732,0.061,-0.854,-0.00878,1.03076,0.07421,28.43
$IMU,18323.720,0.427,0.000,-0.671,-0.00683,1.03027,0.06835,28.43
$IMU,18323.723,1.403,-0.061,-0.549,-0.00488,1.02978,0.07080,28.43
$MAG,18323.724,-0.325,-0.528,-0.253,27.7
$IMU,18323.725,2.197,-0.061,-0.610,-0.00488,1.03173,0.06933,28.43
$IMU,18323.727,2.746,-0.122,-0.854,-0.00390,1.03515,0.06396,28.43
$IMU,18323.730,2.929,0.183,-1.220,-0.00097,1.03662,0.06152,28.44
$IMU,18323.732,3.173,0.000,-1.403,-0.00537,1.03759,0.05712,28.44
$MAG,18323.734,-0.324,-0.534,-0.270,27.7
$IMU,18323.734,3.295,-0.183,-1.281,-0.00732,1.03662,0.05126,28.44
$IMU,18323.737,3.112,-0.244,-0.915,-0.01416,1.02441,0.04785,28.44
$IMU,18323.739,2.685,-0.122,-0.488,-0.01367,1.01318,0.04443,28.44
$IMU,18323.741,2.136,-0.183,0.183,-0.01513,1.00048,0.04199,28.44
$MAG,18323.744,-0.327,-0.526,-0.258,27.6
$IMU,18323.744,1.403,0.061,0.793,-0.01904,0.98730,0.04199,28.44
$IMU,18323.746,0.732,-0.122,1.342,-0.01708,1.00292,0.03808,28.44
$IMU,18323.748,0.183,-0.183,1.220,-0.00878,1.01123,0.03466,28.44
$IMU,18323.751,-0.122,-0.305,0.854,-0.00878,1.00683,0.03710,28.44
$IMU,18323.753,-0.427,-0.305,0.427,-0.00976,0.99511,0.03466,28.44
$MAG,18323.754,-0.330,-0.529,-0.253,27.5
$IMU,18323.755,-0.671,-0.061,0.305,-0.00927,0.98828,0.03564,28.44
$IMU,18323.758,-0.732,-0.122,0.366,-0.00976,0.99804,0.03955,28.44
$IMU,18323.760,-0.732,-0.061,0.488,-0.00976,1.01220,0.04150,28.44
$IMU,18323.763,-0.671,-0.183,0.610,-0.00732,1.02197,0.04296,28.44
$MAG,18323.764,-0.325,-0.523,-0.250,27.6
$IMU,18323.765,-0.610,-0.183,0.549,-0.00585,1.02978,0.04394,28.44
$IMU,18323.767,-0.610,-0.122,0.427,-0.00732,1.02734,0.04492,28.42
$IMU,18323.770,-0.732,0.183,0.427,-0.00927,1.02880,0.04541,28.42
$IMU,18323.772,-0.549,0.122,0.366,-0.00439,1.02441,0.04589,28.42
$MAG,18323.774,-0.328,-0.528,-0.261,27.6
$IMU,18323.774,-0.183,-0.183,0.305,-0.00292,1.02783,0.04931,28.42
$IMU,18323.777,0.000,-0.427,0.183,-0.00341,1.03125,0.04882,28.42
$IMU,18323.779,-0.122,-0.061,0.244,-0.00439,1.03320,0.04541,28.42
$IMU,18323.781,-0.061,-0.183,0.183,-0.00732,1.02636,0.04833,28.42
$BARO,18323.782,86923.05,28.81
$MAG,18323.784,-0.325,-0.519,-0.262,27.6
$IMU,18323.784,0.122,-0.061,0.305,-0.01269,1.01708,0.04638,28.42
$IMU,18323.786,0.244,-0.122,0.549,-0.01611,1.00634,0.04736,28.46
$IMU,18323.788,0.488,-0.305,0.732,-0.01806,0.99462,0.04931,28.46
$IMU,18323.791,0.549,0.000,1.159,-0.01757,0.99169,0.04931,28.46
$IMU,18323.793,0.549,0.122,1.525,-0.01318,0.99072,0.04687,28.46
$MAG,18323.794,-0.328,-0.528,-0.255,27.6
$IMU,18323.795,0.549,0.122,1.831,-0.01367,0.99267,0.04785,28.46
$IMU,18323.798,0.793,-0.122,1.647,-0.00781,0.99218,0.04736,28.46
$IMU,18323.800,0.854,-0.122,1.403,-0.00830,0.99951,0.04882,28.46
$IMU,18323.802,0.732,-0.183,1.159,-0.00585,1.00097,0.04882,28.46
$MAG,18323.804,-0.325,-0.538,-0.258,27.6
$IMU,18323.805,0.793,-0.061,1.037,-0.00830,1.00244,0.04785,28.43
$IMU,18323.807,0.793,-0.061,1.037,-0.01123,1.00244,0.04882,28.43
$IMU,18323.809,0.732,-0.061,1.098,-0.01025,1.01025,0.05029,28.43
$IMU,18323.812,0.671,-0.061,1.037,-0.00683,1.01464,0.04541,28.43
$MAG,18323.814,-0.325,-0.522,-0.259,27.6
$IMU,18323.814,0.549,-0.061,0.732,-0.00537,1.02099,0.04638,28.43
$IMU,18323.816,0.549,-0.366,0.366,-0.00244,1.02490,0.04736,28.43
$IMU,18323.819,0.244,-0.061,0.244,-0.00146,1.02490,0.04931,28.43
$IMU,18323.821,0.122,0.000,0.000,-0.00292,1.02099,0.05175,28.43
$IMU,18323.824,0.000,-0.183,0.061,-0.00585,1.01660,0.05078,28.42
$MAG,18323.825,-0.315,-0.528,-0.259,27.7
$IMU,18323.826,-0.122,-0.122,0.122,-0.00878,1.01074,0.05322,28.42
$IMU,18323.828,0.122,-0.183,0.122,-0.01074,1.00781,0.05371,28.42
$IMU,18323.831,0.366,-0.122,0.244,-0.01367,1.00683,0.05078,28.42
$VBAT,18323.831,4.137
$IMU,18323.833,0.793,0.000,0.488,-0.01318,1.00585,0.04980,28.42
$MAG,18323.835,-0.321,-0.532,-0.265,27.6
$IMU,18323.835,1.342,-0.061,0.610,-0.01171,1.00048,0.04882,28.42
$IMU,18323.838,1.831,0.000,0.549,-0.00830,0.99707,0.04785,28.42
$IMU,18323.840,2.380,-0.061,0.427,-0.00488,1.00195,0.04638,28.42
$IMU,18323.842,2.624,0.000,0.061,-0.00146,1.01074,0.04833,28.41
$MAG,18323.845,-0.328,-0.523,-0.265,27.6
$IMU,18323.845,2.807,0.305,-0.427,0.00000,1.02343,0.04736,28.41
$IMU,18323.847,3.112,0.061,-0.915,0.00000,1.02929,0.04296,28.41
$IMU,18323.849,3.356,-0.061,-1.342,-0.00146,1.02832,0.04296,28.41
$IMU,18323.852,3.540,-0.183,-1.464,-0.00683,1.02685,0.04492,28.41
$IMU,18323.854,3.601,-0.366,-1.403,-0.01025,1.02197,0.04052,28.41
$MAG,18323.855,-0.327,-0.534,-0.255,27.6
$IMU,18323.856,3.356,0.061,-1.098,-0.01367,1.02099,0.03808,28.41
$IMU,18323.859,3.417,-0.122,-0.671,-0.01220,1.02685,0.03759,28.41
$IMU,18323.861,3.234,-0.061,-0.488,-0.01220,1.02685,0.03613,28.47
$IMU,18323.863,3.051,-0.061,-0.427,-0.01025,1.02587,0.03466,28.47
$MAG,18323.865,-0.327,-0.522,-0.261,27.6
$IMU,18323.866,2.685,-0.061,-0.305,-0.00390,1.02392,0.03515,28.47
$IMU,18323.868,2.319,-0.305,-0.305,-0.00634,1.01904,0.03271,28.47
$IMU,18323.870,1.525,0.061,-0.244,-0.00732,1.01855,0.03222,28.47
$IMU,18323.873,0.793,0.122,-0.305,-0.00927,1.01806,0.03125,28.47
$MAG,18323.875,-0.324,-0.534,-0.255,27.7
$IMU,18323.875,0.183,0.061,-0.244,-0.01513,1.01708,0.02929,28.47
$IMU,18323.877,-0.305,-0.122,-0.244,-0.01660,1.01367,0.03027,28.47
$IMU,18323.880,-0.976,0.061,-0.366,-0.01855,0.99902,0.02392,28.46
$IMU,18323.882,-1.342,0.244,-0.915,-0.01708,0.99511,0.01953,28.46
$BARO,18323.883,86927.61,28.82
$MAG,18323.885,-0.333,-0.529,-0.253,27.6
$IMU,18323.885,-1.770,0.427,-0.976,-0.03027,1.02783,0.01562,28.46
$IMU,18323.887,-2.380,0.183,0.305,-0.04003,1.04785,0.01660,28.46
$IMU,18323.889,-2.990,-0.122,2.014,-0.04199,1.05224,0.01953,28.46
$IMU,18323.892,-4.028,-0.244,3.540,-0.03320,1.05566,0.02294,28.46
$IMU,18323.894,-4.943,0.000,4.089,-0.01416,1.04785,0.02343,28.46
$MAG,18323.895,-0.325,-0.535,-0.262,27.7
$IMU,18323.896,-5.676,0.000,3.784,0.00146,1.03808,0.02636,28.46
$IMU,18323.899,-6.286,-0.061,3.051,0.00732,1.02539,0.03271,28.43
$IMU,18323.901,-6.958,0.183,2.380,0.00976,1.02050,0.04101,28.43
$IMU,18323.903,-7.446,0.244,1.953,0.00537,1.01708,0.04638,28.43
$MAG,18323.905,-0.328,-0.526,-0.258,27.7
$IMU,18323.906,-7.812,0.183,1.953,0.00683,1.01171,0.05273,28.43
$IMU,18323.908,-8.056,0.000,2.014,0.00341,1.00488,0.05468,28.43
$IMU,18323.910,-8.361,0.061,2.014,0.00439,0.99804,0.05664,28.43
$IMU,18323.913,-8.300,0.061,1.647,0.00830,0.99023,0.06054,28.43
$MAG,18323.915,-0.327,-0.523,-0.259,27.6
$IMU,18323.915,-7.934,0.061,1.037,0.00781,0.99560,0.06152,28.43
$IMU,18323.917,-7.263,-0.183,0.488,0.00732,1.00585,0.06201,28.44
$IMU,18323.920,-6.591,0.000,0.061,-0.00244,1.01318,0.06396,28.44
$IMU,18323.922,-5.737,0.061,-0.061,-0.00830,1.01708,0.06542,28.44
$IMU,18323.924,-4.821,0.000,0.061,-0.01074,1.01806,0.06591,28.44
$MAG,18323.926,-0.331,-0.519,-0.259,27.7
$IMU,18323.927,-3.967,0.000,0.305,-0.01220,1.01269,0.06591,28.44
$IMU,18323.929,-3.112,0.061,0.305,-0.01025,1.01220,0.06738,28.44
$IMU,18323.931,-2.258,0.061,0.305,-0.00732,1.01318,0.06542,28.44
$IMU,18323.934,-1.159,-0.244,0.244,-0.00634,1.01562,0.06542,28.44
$MAG,18323.936,-0.324,-0.537,-0.265,27.6
$IMU,18323.936,-0.061,-0.061,0.061,-0.00878,1.01513,0.06542,28.46
$IMU,18323.938,0.793,0.061,0.061,-0.00732,1.01367,0.06591,28.46
$IMU,18323.941,1.464,0.183,0.061,-0.00634,1.00976,0.06738,28.46
$IMU,18323.943,2.075,0.122,0.122,-0.00244,1.00488,0.06445,28.46
$MAG,18323.946,-0.324,-0.531,-0.262,27.6
$IMU,18323.946,2.685,0.000,0.061,-0.00146,0.99853,0.06445,28.46
$IMU,18323.948,3.173,-0.183,-0.061,0.00097,0.99023,0.06591,28.46
$IMU,18323.950,3.356,0.183,-0.427,0.00683,0.99267,0.06250,28.46
$IMU,18323.953,3.906,0.122,-0.915,0.00830,0.98876,0.05859,28.46
$IMU,18323.955,4.455,0.183,-1.342,0.00732,0.98486,0.05615,28.47
$MAG,18323.956,-0.325,-0.520,-0.256,27.7
$IMU,18323.957,5.249,0.061,-1.708,0.00390,0.98730,0.05224,28.47
$IMU,18323.960,6.286,-0.244,-2.014,0.00097,0.98828,0.04980,28.47
$IMU,18323.962,7.202,-0.122,-2.136,0.00244,0.98681,0.05468,28.47
$IMU,18323.964,7.995,-0.061,-2.014,-0.00390,0.98681,0.04589,28.47
$MAG,18323.966,-0.330,-0.534,-0.256,27.7
$IMU,18323.967,8.666,-0.061,-2.014,-0.00537,0.99560,0.04394,28.47
$IMU,18323.969,9.033,-0.061,-2.075,-0.00634,1.00488,0.04052,28.47
$IMU,18323.971,8.911,0.061,-2.197,-0.00927,1.01123,0.03613,28.47
$IMU,18323.974,8.483,-0.061,-2.319,-0.00537,1.01757,0.03417,28.44
$MAG,18323.976,-0.327,-0.526,-0.261,27.7
$IMU,18323.976,7.751,0.000,-2.563,-0.01025,1.02148,0.03417,28.44
$IMU,18323.978,6.835,0.000,-2.624,-0.01416,1.02880,0.03027,28.44
$IMU,18323.981,5.493,0.000,-2.258,-0.02246,1.03076,0.02734,28.44
$IMU,18323.983,4.028,0.244,-1.831,-0.02099,1.03173,0.02490,28.44
$BARO,18323.985,86918.69,28.82
$IMU,18323.985,2.685,0.244,-1.220,-0.02441,1.03271,0.02050,28.44
$MAG,18323.986,-0.324,-0.517,-0.255,27.6
$IMU,18323.988,1.342,0.122,-0.610,-0.02294,1.03271,0.01953,28.44
$IMU,18323.990,0.122,0.244,-0.244,-0.02050,1.02294,0.01953,28.44
$IMU,18323.992,-0.976,0.183,0.061,-0.01318,1.02001,0.02099,28.44
$IMU,18323.995,-2.136,0.122,0.183,-0.01074,1.01660,0.02392,28.44
$MAG,18323.996,-0.324,-0.528,-0.255,27.6
$IMU,18323.997,-3.051,0.061,0.122,-0.00488,1.00781,0.02783,28.44
$IMU,18323.999,-3.845,0.122,0.061,-0.00683,1.00146,0.02929,28.44
$IMU,18324.002,-4.211,-0.244,0.244,-0.01074,0.98535,0.03125,28.44
$IMU,18324.004,-3.967,-0.061,0.854,-0.01464,0.95751,0.03515,28.44
$MAG,18324.006,-0.321,-0.526,-0.259,27.7
$IMU,18324.007,-3.540,0.000,1.831,-0.01513,0.96777,0.04296,28.44
$IMU,18324.009,-2.929,-0.183,1.892,-0.00781,0.98046,0.04394,28.44
$IMU,18324.011,-2.502,-0.183,1.281,0.00000,0.98828,0.04541,28.42
$IMU,18324.014,-2.258,-0.122,0.244,0.00097,0.99658,0.04736,28.42
$MAG,18324.016,-0.330,-0.526,-0.256,27.7
$IMU,18324.016,-2.075,-0.183,-0.305,-0.00341,0.99365,0.04882,28.42
$IMU,18324.018,-1.892,-0.183,-0.244,-0.00927,0.98828,0.04785,28.42
$IMU,18324.021,-1.831,-0.061,0.061,-0.01220,0.99121,0.04980,28.42
$IMU,18324.023,-1.708,0.061,0.427,-0.01220,0.99755,0.04785,28.42
$IMU,18324.025,-1.403,0.122,0.671,-0.01318,1.00292,0.04248,28.42
$MAG,18324.026,-0.328,-0.532,-0.258,27.6
$IMU,18324.028,-0.793,-0.061,0.793,-0.01416,1.00781,0.04394,28.42
$IMU,18324.030,-0.061,-0.183,0.915,-0.00781,1.00976,0.04199,28.50
$IMU,18324.032,0.427,-0.122,0.854,-0.00488,1.01611,0.04248,28.50
$IMU,18324.035,0.732,-0.061,0.671,0.00097,1.02050,0.04638,28.50
$MAG,18324.037,-0.325,-0.520,-0.255,27.6
$IMU,18324.037,0.732,-0.061,0.183,0.00244,1.02734,0.04443,28.50
$IMU,18324.039,0.549,-0.122,-0.122,0.00537,1.03125,0.04589,28.50
$IMU,18324.042,0.427,-0.305,-0.427,0.00097,1.02880,0.04443,28.50
$IMU,18324.044,0.000,-0.122,-0.366,-0.00439,1.02929,0.04345,28.50
$IMU,18324.046,-0.244,-0.122,-0.183,-0.01025,1.03027,0.04492,28.50
$MAG,18324.047,-0.328,-0.523,-0.265,27.6
$IMU,18324.049,-0.549,-0.061,-0.122,-0.00976,1.03271,0.04296,28.47
$IMU,18324.051,-0.793,-0.122,0.000,-0.01171,1.02978,0.04296,28.47
$IMU,18324.053,-0.976,-0.122,-0.061,-0.00732,1.02734,0.04296,28.47
$IMU,18324.056,-1.098,-0.122,-0.122,-0.00976,1.02197,0.04296,28.47
$MAG,18324.057,-0.325,-0.532,-0.262,27.7
$IMU,18324.058,-1.342,-0.122,-0.061,-0.00781,1.01757,0.04199,28.47
$IMU,18324.060,-1.464,0.000,-0.061,-0.00634,1.01708,0.04492,28.47
$IMU,18324.063,-1.525,0.061,0.061,-0.00781,1.01953,0.04687,28.47
$IMU,18324.065,-1.586,0.061,0.000,-0.00585,1.01708,0.04833,28.47
$MAG,18324.067,-0.319,-0.519,-0.259,27.7
$IMU,18324.068,-1.525,0.000,-0.122,-0.00292,1.02246,0.04931,28.43
$IMU,18324.070,-1.525,0.061,-0.244,-0.00048,1.01855,0.04833,28.43
$IMU,18324.072,-1.342,-0.061,-0.366,-0.00097,1.01660,0.04833,28.43
$IMU,18324.075,-1.159,-0.122,-0.549,-0.00244,1.01708,0.04980,28.43
$MAG,18324.077,-0.325,-0.522,-0.262,27.7
$IMU,18324.077,-0.915,0.000,-0.671,-0.00439,1.01513,0.04736,28.43
$IMU,18324.079,-0.549,-0.061,-0.732,-0.00488,1.01708,0.04785,28.43
$IMU,18324.082,0.000,-0.244,-0.854,-0.00244,1.02099,0.04833,28.43
$IMU,18324.084,0.366,-0.122,-1.098,-0.00244,1.02099,0.04980,28.43
$BARO,18324.086,86921.17,28.82
$IMU,18324.086,0.915,-0.183,-1.159,-0.00195,1.01953,0.04931,28.44
$MAG,18324.087,-0.331,-0.528,-0.264,27.6
$IMU,18324.089,1.159,0.061,-1.281,-0.00439,1.02246,0.04785,28.44
$IMU,18324.091,1.342,0.061,-1.403,-0.00390,1.02099,0.04638,28.44
$IMU,18324.093,1.525,0.061,-1.525,-0.00683,1.02441,0.04541,28.44
$IMU,18324.096,1.770,-0.122,-1.708,-0.00781,1.02050,0.04345,28.44
$MAG,18324.097,-0.324,-0.522,-0.255,27.6
$IMU,18324.098,1.770,0.000,-1.708,-0.00976,1.02197,0.04589,28.44
$IMU,18324.100,1.770,0.000,-1.586,-0.01367,1.01513,0.04150,28.44
$IMU,18324.103,1.647,0.000,-1.342,-0.01416,1.00634,0.04199,28.44
$IMU,18324.105,1.708,-0.122,-1.037,-0.01757,0.99951,0.04003,28.45
$MAG,18324.107,-0.330,-0.517,-0.262,27.6
$IMU,18324.107,1.525,0.000,-0.732,-0.01611,0.99609,0.04003,28.45
$IMU,18324.110,1.159,0.061,-0.549,-0.01367,0.99511,0.03759,28.45
$IMU,18324.112,1.037,-0.061,-0.549,-0.01171,0.99462,0.03662,28.45
$IMU,18324.114,0.732,0.061,-0.610,-0.01025,0.99658,0.03662,28.45
$MAG,18324.117,-0.325,-0.525,-0.258,27.6
$IMU,18324.117,0.366,0.061,-0.549,-0.00732,0.99511,0.03564,28.45
$IMU,18324.119,0.061,-0.061,-0.549,-0.00732,0.99414,0.03857,28.45
$IMU,18324.121,-0.305,-0.061,-0.427,-0.01513,0.99609,0.04052,28.45
$IMU,18324.124,-0.915,0.122,-0.244,-0.01611,0.99414,0.03662,28.48
$IMU,18324.126,-1.220,-0.122,-0.061,-0.01464,0.99169,0.03710,28.48
$MAG,18324.127,-0.322,-0.523,-0.259,27.6
$IMU,18324.129,-1.525,0.000,0.061,-0.01464,0.99218,0.04003,28.48
$IMU,18324.131,-1.892,0.061,0.305,-0.01074,0.99853,0.04101,28.48
$HUM,18324.132,60.5,29.2
$IMU,18324.133,-2.075,-0.122,0.488,-0.01123,1.00390,0.04101,28.48
$IMU,18324.136,-2.258,-0.244,0.427,-0.00634,1.00390,0.04248,28.48
$MAG,18324.137,-0.328,-0.529,-0.258,27.6
$IMU,18324.138,-2.502,-0.122,0.366,-0.00390,1.01074,0.04296,28.48
$IMU,18324.140,-2.563,-0.122,0.244,-0.00537,1.01416,0.04589,28.48
$IMU,18324.143,-2.502,-0.305,0.244,-0.00634,1.01611,0.04443,28.48
$IMU,18324.145,-2.441,-0.366,0.122,-0.00292,1.02001,0.04638,28.48
$IMU,18324.147,-2.319,-0.244,0.244,-0.00634,1.02001,0.04785,28.48
$MAG,18324.148,-0.321,-0.520,-0.256,27.6
$IMU,18324.150,-2.136,-0.122,0.244,-0.00781,1.02490,0.04687,28.48
$IMU,18324.152,-1.953,-0.061,0.305,-0.00732,1.02490,0.04980,28.48
$IMU,18324.154,-1.647,-0.122,0.305,-0.00634,1.02343,0.05029,28.48
$IMU,18324.157,-1.281,-0.183,0.122,-0.00634,1.02441,0.05078,28.48
$MAG,18324.158,-0.334,-0.523,-0.258,27.7
$IMU,18324.159,-1.037,-0.061,0.000,-0.00927,1.02246,0.05224,28.48
$IMU,18324.161,-0.976,0.122,-0.122,-0.00683,1.02001,0.05175,28.50
$IMU,18324.164,-0.610,0.244,-0.183,-0.00585,1.02197,0.05273,28.50
$IMU,18324.166,-0.183,0.183,-0.366,-0.00488,1.02636,0.04931,28.50
$MAG,18324.168,-0.324,-0.529,-0.262,27.7
$IMU,18324.168,0.244,-0.061,-0.427,-0.00341,1.01904,0.04931,28.50
$IMU,18324.171,0.610,0.061,-0.488,-0.00634,1.01806,0.05273,28.50
$IMU,18324.173,0.915,-0.061,-0.549,-0.00732,1.01367,0.05078,28.50
$IMU,18324.175,1.220,-0.061,-0.610,-0.00634,1.01123,0.04833,28.50
$MAG,18324.178,-0.333,-0.532,-0.256,27.7
$IMU,18324.178,1.525,-0.122,-0.610,-0.00732,1.00976,0.05078,28.50
$IMU,18324.180,1.647,-0.183,-0.671,-0.01123,1.00878,0.04785,28.50
$IMU,18324.182,1.892,-0.366,-0.610,-0.01123,1.00634,0.04931,28.50
$IMU,18324.185,1.770,-0.122,-0.610,-0.01025,1.00390,0.04785,28.50
$IMU,18324.187,1.647,0.000,-0.488,-0.00976,1.00048,0.04345,28.50
$BARO,18324.188,86924.19,28.82
$MAG,18324.188,-0.321,-0.528,-0.265,27.6
$IMU,18324.189,1.647,0.000,-0.427,-0.00927,1.00439,0.04101,28.50
$IMU,18324.192,1.586,0.000,-0.305,-0.00781,1.00537,0.04345,28.50
$IMU,18324.194,1.464,-0.122,-0.305,-0.00683,1.00390,0.04296,28.50
$IMU,18324.197,1.281,-0.122,-0.305,-0.01220,1.00488,0.04296,28.50
$MAG,18324.198,-0.324,-0.531,-0.253,27.6
$IMU,18324.199,1.037,-0.061,-0.244,-0.01123,1.00585,0.03955,28.48
$IMU,18324.201,0.671,0.061,-0.183,-0.00781,1.00781,0.03759,28.48
$IMU,18324.204,0.488,0.122,-0.061,-0.01074,1.00683,0.03759,28.48
$IMU,18324.206,0.366,-0.122,0.000,-0.00927,1.00732,0.03759,28.48
$MAG,18324.208,-0.327,-0.528,-0.261,27.8
$IMU,18324.208,-0.122,-0.061,-0.061,-0.00927,1.01367,0.03955,28.48
$IMU,18324.211,-0.427,-0.061,0.000,-0.00537,1.01220,0.03857,28.48
$IMU,18324.213,-0.732,-0.061,0.061,-0.00927,1.01708,0.03808,28.48
$IMU,18324.215,-0.976,-0.061,0.061,-0.00976,1.01953,0.03857,28.48
$MAG,18324.218,-0.325,-0.531,-0.253,27.8
$IMU,18324.218,-1.220,0.000,0.061,-0.00781,1.01855,0.03857,28.47
$IMU,18324.220,-1.403,-0.122,0.122,-0.00585,1.01904,0.04003,28.47
$IMU,18324.222,-1.464,-0.244,0.000,-0.00683,1.01806,0.04003,28.47
$IMU,18324.225,-1.647,0.000,-0.061,-0.00488,1.01904,0.03906,28.47
$IMU,18324.227,-1.770,0.000,-0.122,-0.00585,1.02246,0.04150,28.47
$MAG,18324.228,-0.330,-0.517,-0.255,27.7
$IMU,18324.229,-1.831,-0.061,-0.183,-0.00683,1.02050,0.04248,28.47
$IMU,18324.232,-1.892,-0.061,-0.122,-0.00683,1.02148,0.04394,28.47
$IMU,18324.234,-1.831,-0.061,-0.061,-0.00683,1.01611,0.04638,28.47
$IMU,18324.236,-1.770,-0.122,-0.061,-0.00292,1.01464,0.04589,28.46
$MAG,18324.238,-0.325,-0.522,-0.261,27.7
$IMU,18324.239,-1.647,-0.183,0.000,-0.00585,1.01074,0.04589,28.46
$IMU,18324.241,-1.647,-0.061,-0.061,-0.00830,1.01562,0.04931,28.46
$IMU,18324.243,-1.464,-0.061,-0.061,-0.00878,1.01318,0.04882,28.46
$IMU,18324.246,-1.281,-0.122,-0.183,-0.00585,1.01416,0.04736,28.46
$MAG,18324.248,-0.325,-0.525,-0.259,28.0
$IMU,18324.248,-1.037,-0.061,-0.183,-0.00830,1.01367,0.04833,28.46
$IMU,18324.250,-0.854,0.000,-0.305,-0.00683,1.01025,0.04833,28.46
$IMU,18324.253,-0.610,-0.061,-0.244,-0.00976,1.00927,0.04687,28.46
$IMU,18324.255,-0.305,-0.122,-0.244,-0.01025,1.00781,0.04785,28.51
$IMU,18324.258,-0.122,-0.061,-0.183,-0.01074,1.00585,0.04882,28.51
$MAG,18324.259,-0.325,-0.526,-0.253,27.8
$IMU,18324.260,0.122,-0.122,-0.122,-0.00976,1.00488,0.04638,28.51
$IMU,18324.262,0.305,-0.122,-0.183,-0.00927,1.00683,0.04980,28.51
$IMU,18324.265,0.488,-0.061,-0.061,-0.00732,1.00683,0.05078,28.51
$IMU,18324.267,0.732,-0.061,-0.122,-0.00878,1.01025,0.04931,28.51
$MAG,18324.269,-0.312,-0.510,-0.253,27.8
$IMU,18324.269,0.854,-0.061,-0.244,-0.00732,1.01074,0.04736,28.51
$IMU,18324.272,1.098,-0.183,-0.305,-0.00781,1.00878,0.04345,28.51
$IMU,18324.274,1.098,-0.122,-0.305,-0.00683,1.01171,0.04589,28.46
$IMU,18324.276,1.159,-0.122,-0.366,-0.00927,1.01220,0.04687,28.46
$MAG,18324.279,-0.327,-0.520,-0.262,27.7
$IMU,18324.279,1.159,0.000,-0.244,-0.00732,1.01123,0.04345,28.46
$IMU,18324.281,1.037,0.000,-0.183,-0.00878,1.01367,0.04199,28.46
$IMU,18324.283,1.159,-0.183,-0.183,-0.00683,1.01367,0.04248,28.46
$IMU,18324.286,1.037,-0.122,-0.244,-0.00585,1.01416,0.04248,28.46
$IMU,18324.288,0.915,-0.061,-0.183,-0.00585,1.01464,0.03759,28.46
$BARO,18324.289,86920.32,28.82
$MAG,18324.289,-0.321,-0.535,-0.268,27.6
$IMU,18324.290,0.732,-0.061,-0.244,-0.00830,1.01464,0.04248,28.46
$IMU,18324.293,0.549,-0.244,-0.244,-0.00634,1.01660,0.03955,28.47
$IMU,18324.295,0.244,0.061,-0.183,-0.00830,1.01562,0.03759,28.47
$IMU,18324.297,0.000,0.000,-0.122,-0.00830,1.01855,0.04052,28.47
$MAG,18324.299,-0.318,-0.522,-0.261,27.6
$IMU,18324.300,-0.183,-0.122,-0.183,-0.00732,1.01464,0.04248,28.47
$IMU,18324.302,-0.488,0.122,-0.183,-0.00732,1.01611,0.04003,28.47
$IMU,18324.304,-0.732,0.122,-0.183,-0.00927,1.01416,0.04052,28.47
$IMU,18324.307,-0.915,0.000,-0.183,-0.00927,1.01416,0.03955,28.47
$MAG,18324.309,-0.316,-0.517,-0.261,27.6
$IMU,18324.309,-1.037,-0.061,-0.183,-0.01123,1.01269,0.04003,28.47
$IMU,18324.311,-1.220,-0.061,-0.122,-0.00781,1.01318,0.04150,28.45
$IMU,18324.314,-1.281,-0.122,-0.061,-0.00830,1.01220,0.04199,28.45
$IMU,18324.316,-1.403,-0.122,0.000,-0.00927,1.01220,0.04052,28.45
$MAG,18324.319,-0.325,-0.537,-0.249,27.6
$IMU,18324.319,-1.525,0.061,-0.061,-0.00878,1.01074,0.04443,28.45
$IMU,18324.321,-1.464,-0.122,0.000,-0.00683,1.00878,0.04248,28.45
$IMU,18324.323,-1.464,-0.244,-0.061,-0.00732,1.01025,0.04394,28.45
$IMU,18324.326,-1.464,-0.122,-0.061,-0.01025,1.01074,0.04443,28.45
$IMU,18324.328,-1.342,-0.122,-0.061,-0.01025,1.00683,0.04589,28.45
$MAG,18324.329,-0.328,-0.522,-0.259,27.6
$IMU,18324.330,-1.220,-0.122,-0.061,-0.00927,1.01025,0.04736,28.47
$IMU,18324.333,-1.159,0.061,-0.061,-0.00732,1.01171,0.04980,28.47
$IMU,18324.335,-1.037,0.000,-0.061,-0.00732,1.00732,0.04785,28.47
$IMU,18324.337,-0.793,-0.061,-0.122,-0.01074,1.00927,0.04736,28.47
$MAG,18324.339,-0.330,-0.532,-0.259,27.7
$IMU,18324.340,-0.610,-0.061,-0.061,-0.00781,1.01171,0.04980,28.47
$IMU,18324.342,-0.549,0.122,-0.183,-0.00683,1.00976,0.04785,28.47
$IMU,18324.344,-0.366,0.244,-0.183,-0.00488,1.01318,0.04638,28.47
$IMU,18324.347,0.000,0.000,-0.183,-0.00634,1.00976,0.04882,28.47
$MAG,18324.349,-0.328,-0.519,-0.253,27.8
$IMU,18324.349,0.061,0.000,-0.183,-0.00488,1.01416,0.04785,28.48
$IMU,18324.351,0.366,-0.122,-0.183,-0.00927,1.01513,0.04980,28.48
$IMU,18324.354,0.488,-0.061,-0.122,-0.00683,1.01757,0.04345,28.48
$IMU,18324.356,0.549,0.000,-0.244,-0.00830,1.01318,0.04443,28.48
$IMU,18324.358,0.610,0.061,-0.244,-0.00830,1.01269,0.04736,28.48
$MAG,18324.360,-0.328,-0.531,-0.256,27.6
$IMU,18324.361,0.671,-0.061,-0.244,-0.00537,1.01220,0.04736,28.48
$IMU,18324.363,0.854,-0.122,-0.244,-0.00830,1.01660,0.04541,28.48
$IMU,18324.365,0.854,-0.122,-0.244,-0.00488,1.01464,0.04345,28.48
$IMU,18324.368,0.793,-0.061,-0.183,-0.00390,1.01220,0.04248,28.50
$MAG,18324.370,-0.327,-0.525,-0.262,27.6
$IMU,18324.370,0.793,-0.122,-0.183,-0.00830,1.01660,0.04345,28.50
$IMU,18324.372,0.671,-0.183,-0.305,-0.00781,1.01416,0.04296,28.50
$IMU,18324.375,0.610,-0.061,-0.244,-0.00537,1.01318,0.04345,28.50
$IMU,18324.377,0.427,-0.061,-0.244,-0.00878,1.01562,0.04199,28.50
$MAG,18324.380,-0.327,-0.531,-0.256,27.6
$IMU,18324.380,0.305,-0.061,-0.366,-0.00732,1.01367,0.03955,28.50
$IMU,18324.382,0.122,0.122,-0.244,-0.00878,1.01318,0.04003,28.50
$IMU,18324.384,0.122,-0.183,-0.244,-0.00683,1.01416,0.03955,28.50
$IMU,18324.387,0.000,-0.122,-0.122,-0.00927,1.01220,0.03906,28.47
$IMU,18324.389,-0.183,-0.061,-0.122,-0.00732,1.01171,0.03857,28.47
$MAG,18324.390,-0.330,-0.514,-0.252,27.7
$BARO,18324.391,86919.86,28.83
$IMU,18324.391,-0.366,-0.122,-0.122,-0.01025,1.01171,0.04101,28.47
$IMU,18324.394,-0.549,-0.061,-0.122,-0.00732,1.01318,0.04345,28.47
$IMU,18324.396,-0.732,-0.061,-0.183,-0.00976,1.01171,0.04052,28.47
$IMU,18324.398,-0.793,-0.183,-0.183,-0.00781,1.01123,0.04394,28.47
$MAG,18324.400,-0.334,-0.522,-0.259,27.7
$IMU,18324.401,-0.854,-0.244,-0.061,-0.00830,1.01367,0.04101,28.47
$IMU,18324.403,-0.854,-0.305,0.000,-0.00976,1.01220,0.04003,28.47
$IMU,18324.405,-1.037,-0.061,0.000,-0.00927,1.01171,0.04345,28.50
$IMU,18324.408,-1.220,0.061,0.000,-0.00683,1.01318,0.04296,28.50
$MAG,18324.410,-0.321,-0.534,-0.253,27.7
$IMU,18324.410,-1.220,0.061,-0.122,-0.00585,1.01220,0.04541,28.50
$IMU,18324.412,-1.220,0.000,-0.122,-0.00781,1.01171,0.04785,28.50
$IMU,18324.415,-1.098,-0.183,-0.122,-0.00683,1.01074,0.04638,28.50
$IMU,18324.417,-1.098,-0.183,-0.183,-0.00683,1.01269,0.04785,28.50
$IMU,18324.419,-1.037,-0.061,-0.122,-0.00830,1.00927,0.04394,28.50
$MAG,18324.420,-0.330,-0.528,-0.258,27.6
$IMU,18324.422,-0.976,0.000,-0.183,-0.00585,1.01123,0.04882,28.50
$IMU,18324.424,-0.732,-0.244,-0.061,-0.00732,1.01269,0.04248,28.48
$IMU,18324.426,-0.610,-0.183,-0.122,-0.00781,1.01171,0.04687,28.48
$IMU,18324.429,-0.549,-0.122,-0.183,-0.01025,1.01367,0.04687,28.48
$MAG,18324.430,-0.331,-0.525,-0.268,27.6
$IMU,18324.431,-0.427,-0.061,-0.244,-0.00732,1.01171,0.04882,28.48
$IMU,18324.433,-0.305,-0.061,-0.244,-0.01074,1.01269,0.04736,28.48
$IMU,18324.436,-0.122,-0.183,-0.244,-0.00781,1.01269,0.04638,28.48
$IMU,18324.438,-0.061,-0.061,-0.122,-0.00781,1.01318,0.04882,28.48
$MAG,18324.440,-0.322,-0.529,-0.265,27.7
$IMU,18324.441,0.122,-0.122,-0.061,-0.00976,1.01123,0.04589,28.48
$IMU,18324.443,0.183,0.061,-0.183,-0.01074,1.00830,0.04541,28.43
$IMU,18324.445,0.305,0.122,-0.244,-0.00927,1.00976,0.04345,28.43
$IMU,18324.448,0.305,0.061,-0.244,-0.00878,1.01220,0.04541,28.43
$MAG,18324.450,-0.327,-0.523,-0.250,27.6
$IMU,18324.450,0.427,-0.061,-0.244,-0.00683,1.00976,0.04687,28.43
$IMU,18324.452,0.549,-0.061,-0.244,-0.01171,1.01123,0.04443,28.43
$IMU,18324.455,0.549,-0.183,-0.244,-0.00781,1.01123,0.04492,28.43
$IMU,18324.457,0.549,-0.183,-0.244,-0.00927,1.01074,0.04248,28.43
$IMU,18324.459,0.488,0.000,-0.183,-0.01171,1.01416,0.04394,28.43
$MAG,18324.461,-0.334,-0.528,-0.262,27.7
$IMU,18324.462,0.366,0.000,-0.183,-0.00781,1.01367,0.04589,28.48
$IMU,18324.464,0.427,-0.183,-0.183,-0.00878,1.01416,0.04248,28.48
$IMU,18324.466,0.305,-0.122,-0.244,-0.00830,1.01367,0.04150,28.48
$IMU,18324.469,0.183,-0.122,-0.183,-0.01123,1.01171,0.04394,28.48
$MAG,18324.471,-0.322,-0.525,-0.261,27.7
$IMU,18324.471,0.000,-0.061,-0.244,-0.00732,1.01562,0.04296,28.48
$IMU,18324.473,-0.122,0.061,-0.183,-0.00976,1.01660,0.04248,28.48
$IMU,18324.476,-0.183,-0.061,-0.122,-0.00488,1.01464,0.04150,28.48
$IMU,18324.478,-0.244,-0.061,-0.122,-0.01025,1.01757,0.04394,28.48
$IMU,18324.480,-0.366,-0.122,-0.122,-0.00585,1.01416,0.04101,28.52
$MAG,18324.481,-0.328,-0.516,-0.253,27.6
$IMU,18324.483,-0.671,0.122,-0.183,-0.00732,1.01318,0.04150,28.52
$IMU,18324.485,-0.732,0.000,-0.183,-0.00634,1.01220,0.04345,28.52
$IMU,18324.487,-0.732,0.000,-0.122,-0.00830,1.01269,0.04248,28.52
$IMU,18324.490,-0.854,0.000,-0.122,-0.00683,1.01416,0.04443,28.52
$MAG,18324.491,-0.331,-0.519,-0.261,27.6
$BARO,18324.492,86918.86,28.83
$IMU,18324.492,-0.915,0.061,-0.122,-0.00781,1.00927,0.04589,28.52
$IMU,18324.494,-0.976,0.122,-0.122,-0.01318,1.01074,0.04296,28.52
$IMU,18324.497,-1.037,0.061,-0.061,-0.00781,1.01513,0.04345,28.52
$IMU,18324.499,-0.915,-0.061,-0.061,-0.00683,1.01074,0.04589,28.49
$MAG,18324.501,-0.324,-0.528,-0.258,27.6
$IMU,18324.502,-0.854,-0.061,-0.061,-0.00683,1.00878,0.04443,28.49
$IMU,18324.504,-0.915,0.000,-0.122,-0.00830,1.00927,0.04492,28.49
$IMU,18324.506,-0.915,-0.122,-0.183,-0.00878,1.01074,0.04687,28.49
$IMU,18324.509,-0.671,-0.122,-0.061,-0.00927,1.01269,0.04589,28.49
$MAG,18324.511,-0.334,-0.529,-0.253,27.6
$IMU,18324.511,-0.671,-0.122,-0.061,-0.00634,1.01123,0.04638,28.49
$IMU,18324.513,-0.488,-0.183,0.000,-0.00634,1.01269,0.04443,28.49
$IMU,18324.516,-0.427,0.000,-0.061,-0.00830,1.00976,0.04296,28.49
$IMU,18324.518,-0.366,-0.061,-0.183,-0.00683,1.01025,0.04492,28.48
$IMU,18324.520,-0.366,0.000,-0.183,-0.00537,1.01367,0.04589,28.48
$MAG,18324.521,-0.325,-0.528,-0.259,27.7
$IMU,18324.523,-0.305,0.122,-0.122,-0.00585,1.01171,0.04589,28.48
$IMU,18324.525,-0.061,-0.061,-0.183,-0.00781,1.01513,0.04443,28.48
$IMU,18324.527,0.061,-0.061,-0.183,-0.01025,1.01562,0.04638,28.48
$IMU,18324.530,0.122,-0.061,-0.122,-0.00830,1.01708,0.04638,28.48
$MAG,18324.531,-0.330,-0.526,-0.252,27.7
$IMU,18324.532,0.183,-0.061,-0.122,-0.00488,1.01416,0.04589,28.48
$IMU,18324.534,0.244,-0.183,-0.244,-0.00634,1.01562,0.04833,28.48
$IMU,18324.537,0.122,-0.061,-0.244,-0.00927,1.01171,0.04736,28.48
$IMU,18324.539,0.305,-0.061,-0.244,-0.00537,1.01611,0.04687,28.48
$MAG,18324.541,-0.324,-0.528,-0.262,27.6
$IMU,18324.541,0.366,-0.305,-0.244,-0.00634,1.01367,0.04394,28.48
$IMU,18324.544,0.305,-0.122,-0.305,-0.00585,1.01171,0.04345,28.48
$IMU,18324.546,0.122,0.061,-0.183,-0.00634,1.01416,0.04199,28.48
$IMU,18324.548,0.183,-0.061,-0.183,-0.00634,1.01367,0.04345,28.48
$MAG,18324.551,-0.322,-0.534,-0.244,27.8
$IMU,18324.551,0.061,0.061,-0.244,-0.00585,1.01416,0.04296,28.48
$IMU,18324.553,0.000,0.000,-0.244,-0.00878,1.01318,0.04296,28.48
$IMU,18324.555,0.122,-0.122,-0.305,-0.00927,1.01171,0.04248,28.48
$IMU,18324.558,0.122,-0.061,-0.183,-0.00585,1.01171,0.04394,28.48
$IMU,18324.560,-0.061,-0.061,-0.244,-0.00878,1.01562,0.04199,28.48
$MAG,18324.561,-0.324,-0.520,-0.261,27.7
$IMU,18324.562,-0.305,0.000,-0.244,-0.00537,1.00927,0.04296,28.48
$IMU,18324.565,-0.122,-0.183,-0.183,-0.00830,1.01416,0.03808,28.48
$IMU,18324.567,-0.122,-0.305,-0.122,-0.00732,1.00830,0.04199,28.48
$IMU,18324.570,-0.305,-0.183,-0.122,-0.00830,1.01269,0.04052,28.48
$MAG,18324.572,-0.324,-0.528,-0.250,27.7
$IMU,18324.572,-0.427,-0.122,-0.122,-0.00781,1.01025,0.04052,28.48
$IMU,18324.574,-0.488,-0.122,-0.183,-0.01025,1.00976,0.04296,28.50
$IMU,18324.577,-0.549,-0.122,-0.122,-0.00976,1.01171,0.04296,28.50
$IMU,18324.579,-0.610,-0.122,-0.122,-0.01025,1.01025,0.04394,28.50
$IMU,18324.581,-0.610,-0.183,-0.061,-0.00634,1.01220,0.04345,28.50
$MAG,18324.582,-0.325,-0.531,-0.264,27.7
$IMU,18324.584,-0.671,0.000,0.000,-0.00830,1.01171,0.04443,28.50
$IMU,18324.586,-0.732,0.122,-0.061,-0.00585,1.01269,0.04296,28.50
$IMU,18324.588,-0.732,0.061,-0.061,-0.00732,1.01318,0.04101,28.50
$IMU,18324.591,-0.732,0.000,-0.122,-0.00732,1.01318,0.04443,28.50
$MAG,18324.592,-0.321,-0.523,-0.262,27.7
$IMU,18324.593,-0.610,-0.183,-0.122,-0.01025,1.01025,0.04345,28.50
$BARO,18324.594,86923.54,28.82
$IMU,18324.595,-0.549,-0.122,-0.122,-0.01123,1.01220,0.04345,28.50
$IMU,18324.598,-0.671,-0.122,-0.183,-0.00683,1.01074,0.04296,28.50
$IMU,18324.600,-0.610,0.000,-0.122,-0.00976,1.01611,0.04638,28.50
$MAG,18324.602,-0.328,-0.523,-0.255,27.6
$IMU,18324.602,-0.488,-0.183,-0.183,-0.00927,1.01171,0.04638,28.50
$IMU,18324.605,-0.366,-0.244,-0.183,-0.00878,1.00878,0.04785,28.50
$IMU,18324.607,-0.366,-0.122,-0.122,-0.00781,1.01171,0.04589,28.50
$IMU,18324.609,-0.305,-0.061,-0.061,-0.01074,1.01025,0.04638,28.50
$MAG,18324.612,-0.331,-0.522,-0.259,27.7
$IMU,18324.612,-0.305,0.061,-0.183,-0.00976,1.01367,0.04541,28.49
$IMU,18324.614,-0.305,0.000,-0.305,-0.00732,1.01220,0.04785,28.49
$IMU,18324.616,-0.183,-0.061,-0.244,-0.00781,1.01220,0.04492,28.49
$IMU,18324.619,-0.061,-0.061,-0.244,-0.00927,1.01416,0.04492,28.49
$IMU,18324.621,0.000,-0.122,-0.183,-0.00732,1.01367,0.04541,28.49
$MAG,18324.622,-0.328,-0.525,-0.267,27.6
$IMU,18324.623,-0.061,0.061,-0.122,-0.01025,1.01513,0.04687,28.49
$IMU,18324.626,0.061,0.061,-0.122,-0.00830,1.01416,0.04248,28.49
$IMU,18324.628,0.122,-0.061,-0.183,-0.00927,1.01269,0.04394,28.49
$IMU,18324.631,0.122,-0.183,-0.305,-0.01074,1.01123,0.04394,28.52
$MAG,18324.632,-0.327,-0.531,-0.250,27.8
$IMU,18324.633,0.122,-0.122,-0.122,-0.00634,1.01367,0.04394,28.52
$IMU,18324.635,0.122,0.000,-0.183,-0.00830,1.01318,0.04150,28.52
$IMU,18324.638,0.122,-0.061,-0.183,-0.00585,1.01025,0.04394,28.52
$IMU,18324.640,0.122,-0.061,-0.122,-0.00878,1.01220,0.04296,28.52
$MAG,18324.642,-0.330,-0.523,-0.253,27.6
$IMU,18324.642,0.183,-0.122,-0.122,-0.00830,1.01025,0.04394,28.52
$IMU,18324.645,0.183,-0.244,-0.122,-0.00927,1.00927,0.04248,28.52
$IMU,18324.647,-0.061,-0.061,-0.183,-0.00830,1.01123,0.04443,28.52
$IMU,18324.649,-0.061,-0.061,-0.244,-0.00634,1.00927,0.04248,28.48
$MAG,18324.652,-0.319,-0.522,-0.264,27.6
$IMU,18324.652,-0.122,0.000,-0.244,-0.00634,1.01025,0.04492,28.48
$IMU,18324.654,-0.122,0.061,-0.183,-0.00830,1.01025,0.04345,28.48
$IMU,18324.656,-0.183,-0.122,-0.061,-0.00585,1.01074,0.04199,28.48
$IMU,18324.659,-0.183,-0.183,0.000,-0.00634,1.01171,0.04296,28.48
$IMU,18324.661,-0.305,-0.061,-0.061,-0.00927,1.01171,0.04296,28.48
$MAG,18324.662,-0.334,-0.531,-0.261,27.6
$IMU,18324.663,-0.549,0.061,-0.122,-0.00878,1.01171,0.04492,28.48
$IMU,18324.666,-0.610,0.000,-0.122,-0.00878,1.01025,0.04296,28.48
$IMU,18324.668,-0.549,-0.061,-0.183,-0.00781,1.01367,0.04248,28.53
$IMU,18324.670,-0.549,-0.061,-0.122,-0.00878,1.01464,0.04199,28.53
$MAG,18324.672,-0.319,-0.531,-0.258,27.7
$IMU,18324.673,-0.610,-0.122,-0.122,-0.00878,1.01416,0.04541,28.53
$IMU,18324.675,-0.610,-0.061,-0.061,-0.00585,1.01074,0.04296,28.53
$IMU,18324.677,-0.549,-0.122,-0.122,-0.00732,1.01562,0.04492,28.53
$IMU,18324.680,-0.549,-0.244,-0.122,-0.00732,1.01464,0.04248,28.53
$IMU,18324.682,-0.549,-0.122,-0.122,-0.00927,1.01513,0.04541,28.53
$MAG,18324.683,-0.327,-0.528,-0.258,27.7
$IMU,18324.684,-0.671,-0.061,-0.183,-0.00927,1.01660,0.04492,28.53
$IMU,18324.687,-0.671,0.000,-0.183,-0.00830,1.01220,0.04687,28.48
$IMU,18324.689,-0.549,0.000,-0.183,-0.00341,1.01318,0.04443,28.48
$IMU,18324.692,-0.427,-0.244,-0.244,-0.00830,1.01220,0.04394,28.48
$MAG,18324.693,-0.327,-0.531,-0.259,27.7
$IMU,18324.694,-0.488,0.000,-0.122,-0.00683,1.01025,0.04443,28.48
$BARO,18324.695,86926.10,28.83
$IMU,18324.696,-0.366,-0.061,-0.122,-0.00781,1.01464,0.04394,28.48
$IMU,18324.699,-0.366,-0.061,-0.183,-0.00781,1.01416,0.04296,28.48
$IMU,18324.701,-0.183,-0.183,-0.183,-0.00781,1.01025,0.04589,28.48
$MAG,18324.703,-0.330,-0.520,-0.259,27.6
$IMU,18324.703,-0.244,-0.061,-0.183,-0.00683,1.01074,0.04589,28.48
$IMU,18324.706,-0.122,-0.305,-0.183,-0.00683,1.01318,0.04443,28.50
$IMU,18324.708,-0.061,-0.183,-0.244,-0.00732,1.01220,0.04443,28.50
$IMU,18324.710,-0.061,-0.122,-0.244,-0.00585,1.00830,0.04248,28.50
$MAG,18324.713,-0.327,-0.525,-0.262,27.7
$IMU,18324.713,0.000,-0.183,-0.122,-0.00634,1.00976,0.04296,28.50
$IMU,18324.715,0.122,-0.183,-0.122,-0.00732,1.01074,0.04541,28.50
$IMU,18324.717,0.000,-0.061,-0.183,-0.00927,1.01416,0.04296,28.50
$IMU,18324.720,-0.061,0.000,-0.183,-0.00439,1.01220,0.04394,28.50
$IMU,18324.722,0.000,-0.122,-0.244,-0.00927,1.01074,0.04492,28.50
$MAG,18324.723,-0.321,-0.529,-0.261,27.7
$IMU,18324.724,-0.061,0.061,-0.183,-0.00488,1.00878,0.04199,28.51
$IMU,18324.727,0.000,-0.061,-0.122,-0.00927,1.01269,0.04443,28.51
$IMU,18324.729,0.000,-0.061,-0.122,-0.01074,1.01318,0.04541,28.51
$IMU,18324.731,-0.061,0.061,-0.122,-0.01074,1.01318,0.04736,28.51
$MAG,18324.733,-0.333,-0.528,-0.259,27.7
$IMU,18324.734,-0.061,-0.061,-0.122,-0.01074,1.01367,0.04248,28.51
$IMU,18324.736,-0.122,-0.061,-0.122,-0.00537,1.01708,0.04101,28.51
$IMU,18324.738,-0.122,-0.122,-0.183,-0.01025,1.01318,0.04394,28.51
$IMU,18324.741,-0.183,-0.122,-0.183,-0.01025,1.01464,0.04541,28.51
$MAG,18324.743,-0.328,-0.525,-0.259,27.7
$IMU,18324.743,-0.244,-0.061,-0.122,-0.00585,1.01562,0.04443,28.48
$IMU,18324.745,-0.183,-0.305,-0.061,-0.00732,1.01367,0.04345,28.48
$IMU,18324.748,-0.183,-0.305,-0.061,-0.00976,1.01464,0.04296,28.48
$IMU,18324.750,-0.305,-0.183,-0.122,-0.00781,1.01562,0.04492,28.48
$MAG,18324.753,-0.334,-0.525,-0.262,27.7
$IMU,18324.753,-0.366,-0.122,-0.183,-0.00830,1.01513,0.04443,28.48
$IMU,18324.755,-0.488,-0.061,-0.244,-0.00390,1.01367,0.04199,28.48
$IMU,18324.757,-0.488,0.000,-0.244,-0.00683,1.01318,0.04492,28.48
$IMU,18324.760,-0.427,-0.122,-0.244,-0.01025,1.01123,0.04248,28.48
$IMU,18324.762,-0.427,-0.122,-0.183,-0.00976,1.01269,0.04541,28.53
$MAG,18324.763,-0.324,-0.531,-0.255,27.8
$IMU,18324.764,-0.549,0.000,-0.122,-0.00878,1.01513,0.04394,28.53
$IMU,18324.767,-0.488,0.000,-0.183,-0.00878,1.01416,0.04394,28.53
$IMU,18324.769,-0.427,-0.122,-0.183,-0.00683,1.01464,0.04638,28.53
$IMU,18324.771,-0.488,0.000,-0.122,-0.00537,1.01220,0.04443,28.53
$MAG,18324.773,-0.327,-0.526,-0.250,27.8
$IMU,18324.774,-0.427,-0.183,-0.183,-0.00683,1.01367,0.04248,28.53
$IMU,18324.776,-0.427,-0.122,-0.183,-0.00732,1.00878,0.04394,28.53
$IMU,18324.778,-0.427,-0.061,-0.122,-0.00830,1.01123,0.04589,28.53
$IMU,18324.781,-0.488,0.000,-0.122,-0.00634,1.01123,0.04736,28.50
$MAG,18324.783,-0.319,-0.528,-0.259,27.7
$IMU,18324.783,-0.305,-0.244,-0.122,-0.00634,1.01318,0.04687,28.50
$IMU,18324.785,-0.305,-0.122,-0.061,-0.01123,1.01123,0.04492,28.50
$IMU,18324.788,-0.305,-0.061,-0.061,-0.00781,1.01269,0.04833,28.50
$IMU,18324.790,-0.183,-0.183,-0.122,-0.00927,1.01220,0.04541,28.50
$IMU,18324.792,-0.122,-0.183,-0.183,-0.00781,1.01464,0.04394,28.50
$MAG,18324.794,-0.318,-0.529,-0.261,27.7
$IMU,18324.795,-0.183,-0.061,-0.122,-0.00830,1.01220,0.04492,28.50
$BARO,18324.797,86926.71,28.83
$IMU,18324.797,-0.122,-0.183,-0.183,-0.00488,1.01171,0.04345,28.50
$IMU,18324.799,0.000,-0.122,-0.183,-0.00439,1.01269,0.04638,28.52
$IMU,18324.802,-0.122,0.061,-0.122,-0.00830,1.00976,0.04541,28.52
$MAG,18324.804,-0.325,-0.525,-0.253,27.7
$IMU,18324.804,-0.183,0.061,-0.122,-0.00781,1.01220,0.04394,28.52
$IMU,18324.806,-0.061,0.000,-0.183,-0.00927,1.01416,0.04443,28.52
$IMU,18324.809,0.000,-0.183,-0.244,-0.00390,1.01318,0.04248,28.52
$IMU,18324.811,0.000,-0.122,-0.244,-0.00781,1.01367,0.04443,28.52
$MAG,18324.814,-0.318,-0.525,-0.262,27.7
$IMU,18324.814,-0.122,-0.122,-0.183,-0.00634,1.00732,0.04443,28.52
$IMU,18324.816,-0.061,-0.061,-0.183,-0.00683,1.01171,0.04296,28.52
$IMU,18324.818,-0.122,-0.061,-0.244,-0.01123,1.01367,0.04248,28.51
$IMU,18324.821,-0.122,0.061,-0.183,-0.00830,1.01074,0.04394,28.51
$IMU,18324.823,-0.061,-0.061,-0.183,-0.00683,1.01074,0.04394,28.51
$MAG,18324.824,-0.324,-0.531,-0.255,27.7
$IMU,18324.825,-0.061,-0.183,-0.183,-0.00927,1.01269,0.04492,28.51
$IMU,18324.828,-0.183,0.061,-0.244,-0.00732,1.01611,0.04101,28.51
$IMU,18324.830,-0.244,0.061,-0.183,-0.00878,1.01171,0.04150,28.51
$VBAT,18324.831,4.142
$IMU,18324.832,-0.244,-0.061,-0.122,-0.01074,1.01074,0.04199,28.51
$MAG,18324.834,-0.327,-0.523,-0.259,27.6
$IMU,18324.835,-0.305,-0.061,-0.122,-0.00585,1.00976,0.04199,28.51
$IMU,18324.837,-0.305,-0.061,-0.122,-0.00830,1.01416,0.04003,28.48
$IMU,18324.839,-0.305,-0.122,-0.122,-0.00878,1.01269,0.04150,28.48
$IMU,18324.842,-0.366,-0.122,-0.183,-0.00830,1.01318,0.04345,28.48
$MAG,18324.844,-0.325,-0.531,-0.271,27.6
$IMU,18324.844,-0.488,-0.061,-0.244,-0.00830,1.01464,0.04541,28.48
$IMU,18324.846,-0.366,-0.122,-0.183,-0.00781,1.01269,0.04492,28.48
$IMU,18324.849,-0.366,-0.244,-0.122,-0.01025,1.01123,0.04736,28.48
$IMU,18324.851,-0.366,-0.244,-0.122,-0.00634,1.01318,0.04296,28.48
$IMU,18324.853,-0.427,-0.122,-0.061,-0.00732,1.01269,0.04150,28.48
$MAG,18324.854,-0.328,-0.532,-0.267,27.7
$IMU,18324.856,-0.488,-0.061,-0.061,-0.00781,1.01074,0.04394,28.50
$IMU,18324.858,-0.488,-0.061,-0.183,-0.00732,1.01367,0.04589,28.50
$IMU,18324.860,-0.427,-0.122,-0.122,-0.00878,1.01318,0.04492,28.50
$IMU,18324.863,-0.427,-0.061,-0.122,-0.00634,1.00927,0.04345,28.50
$MAG,18324.864,-0.330,-0.531,-0.258,27.6
$IMU,18324.865,-0.549,-0.061,-0.183,-0.00781,1.01171,0.04443,28.50
$IMU,18324.867,-0.549,0.061,-0.244,-0.00634,1.01074,0.04296,28.50
$IMU,18324.870,-0.427,0.061,-0.183,-0.00878,1.01464,0.04541,28.50
$IMU,18324.872,-0.427,0.122,-0.122,-0.00634,1.01367,0.04687,28.50
$MAG,18324.874,-0.316,-0.517,-0.250,27.7
$IMU,18324.875,-0.305,0.000,-0.122,-0.00634,1.01025,0.04589,28.50
$IMU,18324.877,-0.244,-0.244,0.000,-0.00634,1.01367,0.04345,28.50
$IMU,18324.879,-0.244,-0.122,-0.122,-0.00732,1.01367,0.04492,28.50
$IMU,18324.882,-0.244,-0.122,-0.183,-0.00976,1.01416,0.04687,28.50
$MAG,18324.884,-0.330,-0.523,-0.255,27.8
$IMU,18324.884,-0.122,-0.183,-0.244,-0.00830,1.01171,0.04638,28.50
$IMU,18324.886,-0.122,-0.244,-0.244,-0.01123,1.01171,0.04589,28.50
$IMU,18324.889,-0.122,-0.061,-0.244,-0.00683,1.01123,0.04345,28.50
$IMU,18324.891,0.061,-0.366,-0.244,-0.00683,1.00830,0.04492,28.50
$IMU,18324.893,0.061,-0.305,-0.183,-0.00781,1.01367,0.04541,28.53
$MAG,18324.894,-0.331,-0.526,-0.252,27.7
$IMU,18324.896,0.000,-0.183,-0.183,-0.00537,1.01416,0.04492,28.53
$BARO,18324.898,86924.24,28.83
$IMU,18324.898,0.000,-0.061,-0.244,-0.00732,1.01123,0.04052,28.53
$IMU,18324.900,-0.061,0.061,-0.183,-0.00927,1.01123,0.04541,28.53
$IMU,18324.903,0.000,-0.061,-0.305,-0.00878,1.01367,0.04296,28.53
$MAG,18324.905,-0.325,-0.529,-0.261,27.7
$IMU,18324.905,0.000,-0.061,-0.305,-0.01123,1.01123,0.04589,28.53
$IMU,18324.907,-0.061,0.000,-0.244,-0.00927,1.01416,0.04443,28.53
$IMU,18324.910,-0.183,0.061,-0.122,-0.00244,1.01171,0.04248,28.53
$IMU,18324.912,-0.183,-0.122,-0.122,-0.01025,1.01123,0.04394,28.48
$IMU,18324.914,-0.183,-0.122,-0.061,-0.00927,1.01171,0.04443,28.48
$MAG,18324.915,-0.322,-0.528,-0.258,27.7
$IMU,18324.917,-0.244,-0.061,-0.122,-0.00683,1.01171,0.04492,28.48
$IMU,18324.919,-0.244,-0.122,-0.244,-0.00585,1.01025,0.04394,28.48
$IMU,18324.921,-0.305,-0.061,-0.244,-0.00585,1.01367,0.04345,28.48
$IMU,18324.924,-0.305,-0.122,-0.244,-0.00732,1.01367,0.04248,28.48
$MAG,18324.925,-0.324,-0.525,-0.256,27.7
$IMU,18324.926,-0.305,-0.122,-0.183,-0.00683,1.01269,0.04589,28.48
$IMU,18324.928,-0.366,-0.122,-0.183,-0.00732,1.01123,0.04248,28.48
$IMU,18324.931,-0.488,0.000,-0.122,-0.00830,1.01318,0.04199,28.52
$IMU,18324.933,-0.427,0.000,-0.183,-0.00927,1.01269,0.04492,28.52
$MAG,18324.935,-0.322,-0.526,-0.256,27.7
$IMU,18324.935,-0.427,-0.122,-0.183,-0.00830,1.01171,0.04541,28.52
$IMU,18324.938,-0.488,-0.183,-0.183,-0.00634,1.01220,0.04296,28.52
$IMU,18324.940,-0.427,-0.061,-0.183,-0.00634,1.01171,0.04394,28.52
$IMU,18324.943,-0.427,-0.183,-0.122,-0.00634,1.01269,0.04492,28.52
$MAG,18324.945,-0.325,-0.525,-0.268,27.7
$IMU,18324.945,-0.488,0.061,-0.061,-0.00488,1.01123,0.04394,28.52
$IMU,18324.947,-0.488,0.061,-0.061,-0.00585,1.01269,0.04687,28.52
$IMU,18324.950,-0.366,0.000,-0.122,-0.00878,1.01367,0.04248,28.53
$IMU,18324.952,-0.366,-0.061,-0.183,-0.00634,1.01220,0.04882,28.53
$IMU,18324.954,-0.366,0.000,-0.244,-0.00732,1.01513,0.04541,28.53
$MAG,18324.955,-0.324,-0.528,-0.259,27.7
$IMU,18324.957,-0.305,-0.122,-0.305,-0.00683,1.01220,0.04394,28.53
$IMU,18324.959,-0.244,-0.061,-0.183,-0.00781,1.01171,0.04492,28.53
$IMU,18324.961,-0.183,-0.122,-0.183,-0.00634,1.01513,0.04296,28.53
$IMU,18324.964,-0.183,-0.061,-0.122,-0.00585,1.01025,0.04541,28.53
$MAG,18324.965,-0.321,-0.522,-0.262,27.8
$IMU,18324.966,-0.122,-0.061,-0.061,-0.00927,1.01220,0.04638,28.53
$IMU,18324.968,-0.244,0.000,-0.061,-0.00830,1.00927,0.04443,28.53
$IMU,18324.971,-0.244,0.122,-0.183,-0.00634,1.00878,0.04443,28.53
$IMU,18324.973,-0.183,-0.061,-0.244,-0.00878,1.01171,0.04345,28.53
$MAG,18324.975,-0.325,-0.520,-0.256,27.8
$IMU,18324.975,-0.183,-0.122,-0.244,-0.01074,1.01318,0.04541,28.53
$IMU,18324.978,-0.061,-0.122,-0.122,-0.00927,1.01123,0.04394,28.53
$IMU,18324.980,-0.183,0.000,-0.183,-0.00976,1.01025,0.04541,28.53
$IMU,18324.982,-0.122,-0.061,-0.061,-0.00830,1.01123,0.04492,28.53
$MAG,18324.985,-0.322,-0.528,-0.265,27.7
$IMU,18324.985,-0.061,-0.061,-0.122,-0.00878,1.01367,0.04589,28.53
$IMU,18324.987,-0.061,-0.183,-0.122,-0.00732,1.01611,0.04492,28.53
$IMU,18324.989,0.000,-0.305,-0.183,-0.00830,1.01416,0.04248,28.53
$IMU,18324.992,-0.183,-0.061,-0.244,-0.00830,1.01464,0.04345,28.53
$IMU,18324.994,-0.305,0.000,-0.244,-0.00781,1.01513,0.04541,28.53
$MAG,18324.995,-0.327,-0.522,-0.261,27.8
$IMU,18324.996,-0.244,-0.122,-0.244,-0.00634,1.01220,0.04492,28.53
$IMU,18324.999,-0.122,-0.122,-0.244,-0.00634,1.01025,0.04199,28.53
$BARO,18325.000,86915.61,28.83
$IMU,18325.001,-0.244,0.061,-0.183,-0.00830,1.01416,0.04248,28.53
$IMU,18325.004,-0.183,-0.061,-0.183,-0.01269,1.01367,0.04443,28.53
$MAG,18325.005,-0.321,-0.522,-0.259,28.0
$IMU,18325.006,-0.244,-0.061,-0.122,-0.00781,1.01416,0.04248,28.51
$IMU,18325.008,-0.305,0.000,-0.183,-0.01074,1.01220,0.04296,28.51
$IMU,18325.011,-0.305,0.122,-0.183,-0.00878,1.01367,0.04345,28.51
$IMU,18325.013,-0.305,0.000,-0.122,-0.00830,1.01464,0.04492,28.51
$IMU,18325.015,-0.305,-0.061,-0.122,-0.00878,1.01464,0.04638,28.51
$MAG,18325.016,-0.327,-0.526,-0.258,27.7
$IMU,18325.018,-0.244,-0.122,-0.122,-0.00634,1.01416,0.04443,28.51
$IMU,18325.020,-0.366,-0.061,-0.122,-0.00537,1.01269,0.04492,28.51
$IMU,18325.022,-0.427,0.000,-0.183,-0.00683,1.01367,0.04492,28.51
$IMU,18325.025,-0.427,0.000,-0.183,-0.00634,1.01269,0.04492,28.53
$MAG,18325.026,-0.324,-0.526,-0.256,27.7
$IMU,18325.027,-0.366,-0.183,-0.122,-0.00830,1.01513,0.04394,28.53
$IMU,18325.029,-0.305,-0.183,-0.122,-0.00634,1.01269,0.04443,28.53
$IMU,18325.032,-0.366,-0.183,-0.183,-0.00683,1.01318,0.04345,28.53
$IMU,18325.034,-0.366,-0.183,-0.122,-0.00634,1.01367,0.04101,28.53
$MAG,18325.036,-0.322,-0.526,-0.259,27.6
$IMU,18325.036,-0.427,-0.061,-0.122,-0.00488,1.01269,0.04492,28.53
$IMU,18325.039,-0.366,-0.122,-0.183,-0.00732,1.01416,0.04492,28.53
$IMU,18325.041,-0.305,-0.061,-0.244,-0.01171,1.01220,0.04296,28.53
$IMU,18325.043,-0.244,-0.244,-0.244,-0.00830,1.01025,0.04394,28.52
$MAG,18325.046,-0.325,-0.517,-0.253,27.6
$IMU,18325.046,-0.305,-0.122,-0.244,-0.00683,1.01269,0.04296,28.52
$IMU,18325.048,-0.366,0.061,-0.244,-0.00927,1.01074,0.04296,28.52
$IMU,18325.050,-0.305,0.000,-0.183,-0.00537,1.01367,0.04589,28.52
$IMU,18325.053,-0.122,-0.061,-0.122,-0.00927,1.01171,0.04541,28.52
$IMU,18325.055,-0.122,-0.061,-0.183,-0.00781,1.01318,0.04492,28.52
$MAG,18325.056,-0.327,-0.526,-0.259,27.8
$IMU,18325.057,-0.183,0.000,-0.183,-0.00878,1.01123,0.04687,28.52
$IMU,18325.060,-0.122,-0.061,-0.244,-0.00927,1.01416,0.04492,28.52
$IMU,18325.062,-0.122,0.061,-0.122,-0.01025,1.01464,0.04492,28.47
$IMU,18325.065,-0.061,0.061,-0.183,-0.00976,1.00976,0.04541,28.47
$MAG,18325.066,-0.324,-0.522,-0.265,27.7
$IMU,18325.067,0.061,-0.244,-0.183,-0.00927,1.01367,0.04394,28.47
$IMU,18325.069,0.000,-0.183,-0.122,-0.00732,1.01318,0.04248,28.47
$IMU,18325.072,-0.183,-0.061,-0.122,-0.00830,1.01123,0.04443,28.47
$IMU,18325.074,-0.061,-0.122,-0.122,-0.01171,1.01123,0.04248,28.47
$MAG,18325.076,-0.325,-0.528,-0.264,27.7
$IMU,18325.076,-0.183,-0.061,-0.183,-0.00683,1.01367,0.04345,28.47
$IMU,18325.079,-0.244,-0.061,-0.183,-0.00683,1.01171,0.04589,28.47
$IMU,18325.081,-0.122,-0.122,-0.183,-0.00927,1.01220,0.04394,28.55
$IMU,18325.083,-0.183,-0.183,-0.183,-0.00878,1.01123,0.04394,28.55
$MAG,18325.086,-0.330,-0.525,-0.270,27.7
$IMU,18325.086,-0.183,-0.061,-0.183,-0.00781,1.00878,0.04248,28.55
$IMU,18325.088,-0.244,-0.061,-0.122,-0.00830,1.01220,0.04394,28.55
$IMU,18325.090,-0.305,-0.183,-0.122,-0.00878,1.01367,0.04394,28.55
$IMU,18325.093,-0.427,0.122,-0.061,-0.00634,1.00927,0.04492,28.55
$IMU,18325.095,-0.366,-0.122,-0.244,-0.01074,1.01269,0.04394,28.55
$MAG,18325.096,-0.327,-0.519,-0.255,27.6
$IMU,18325.097,-0.366,-0.122,-0.244,-0.00781,1.01269,0.04541,28.55
$IMU,18325.100,-0.366,-0.122,-0.183,-0.00634,1.01171,0.04443,28.57
$BARO,18325.101,86918.78,28.83
$IMU,18325.102,-0.427,-0.061,-0.183,-0.00878,1.01171,0.04345,28.57
$IMU,18325.104,-0.549,0.000,-0.183,-0.00683,1.01025,0.04296,28.57
$MAG,18325.106,-0.328,-0.528,-0.268,27.6
$IMU,18325.107,-0.244,-0.183,-0.122,-0.00732,1.01123,0.04394,28.57
$IMU,18325.109,-0.305,-0.122,-0.122,-0.00585,1.00927,0.04394,28.57
$IMU,18325.111,-0.427,0.000,-0.061,-0.01074,1.01025,0.04541,28.57
$IMU,18325.114,-0.427,-0.061,-0.061,-0.00927,1.01269,0.04443,28.57
$IMU,18325.116,-0.427,-0.122,-0.122,-0.00878,1.01464,0.04492,28.57
$MAG,18325.117,-0.328,-0.525,-0.267,27.7
$IMU,18325.118,-0.305,-0.122,-0.122,-0.00781,1.01367,0.04492,28.55
$IMU,18325.121,-0.305,-0.122,-0.122,-0.01074,1.01464,0.04443,28.55
$IMU,18325.123,-0.305,-0.061,-0.061,-0.00732,1.01318,0.04589,28.55
$IMU,18325.126,-0.305,-0.061,-0.122,-0.00830,1.01367,0.04443,28.55
$MAG,18325.127,-0.330,-0.531,-0.259,27.7
$IMU,18325.128,-0.305,-0.122,-0.122,-0.00585,1.01708,0.04882,28.55
$IMU,18325.130,-0.183,-0.183,-0.122,-0.00683,1.01513,0.04589,28.55
$IMU,18325.133,-0.244,0.000,-0.183,-0.00683,1.01318,0.04248,28.55
$IMU,18325.135,-0.183,-0.122,-0.183,-0.00488,1.01562,0.04296,28.55
$MAG,18325.137,-0.324,-0.525,-0.256,28.0
$IMU,18325.137,-0.244,0.061,-0.244,-0.00537,1.01806,0.04345,28.50
$IMU,18325.140,-0.244,0.000,-0.244,-0.00683,1.01464,0.04736,28.50
$IMU,18325.142,-0.244,0.000,-0.183,-0.00634,1.01269,0.04492,28.50
$IMU,18325.144,-0.122,-0.122,-0.183,-0.00341,1.01123,0.04492,28.50
$MAG,18325.147,-0.322,-0.523,-0.259,27.7
$IMU,18325.147,-0.122,-0.122,-0.183,-0.00634,1.01123,0.04492,28.50
$HUM,18325.148,60.1,29.2
$IMU,18325.149,-0.183,0.061,-0.183,-0.00732,1.00976,0.04394,28.50
$IMU,18325.151,-0.183,0.122,-0.183,-0.00537,1.01025,0.04394,28.50
$IMU,18325.154,0.000,0.000,-0.244,-0.00732,1.01318,0.04150,28.50
$IMU,18325.156,0.000,-0.061,-0.305,-0.00683,1.01123,0.04248,28.53
$MAG,18325.157,-0.325,-0.520,-0.270,27.6
$IMU,18325.158,0.000,-0.061,-0.366,-0.00634,1.01220,0.04150,28.53
$IMU,18325.161,0.000,-0.122,-0.305,-0.00634,1.01025,0.04296,28.53
$IMU,18325.163,-0.122,-0.061,-0.366,-0.00976,1.01025,0.04492,28.53
$IMU,18325.165,-0.305,0.000,-0.427,-0.01416,1.00927,0.04443,28.53
$MAG,18325.167,-0.322,-0.525,-0.256,27.6
$IMU,18325.168,-0.305,-0.183,-0.366,-0.01806,1.01025,0.04736,28.53
$IMU,18325.170,-0.366,-0.183,-0.305,-0.01855,1.00976,0.04736,28.53
$IMU,18325.172,-0.427,-0.122,-0.183,-0.01611,1.01513,0.04492,28.53
$IMU,18325.175,-0.427,-0.061,0.122,-0.01416,1.01025,0.04443,28.50
$MAG,18325.177,-0.324,-0.526,-0.264,28.0
$IMU,18325.177,-0.366,0.000,0.366,-0.00439,1.01123,0.04248,28.50
$IMU,18325.179,-0.244,0.061,0.366,-0.00390,1.00927,0.04638,28.50
$IMU,18325.182,-0.122,0.000,0.244,-0.00097,1.01123,0.04296,28.50
$IMU,18325.184,-0.183,-0.061,0.000,0.00097,1.01025,0.04345,28.50
$MAG,18325.187,-0.324,-0.525,-0.264,28.0
$IMU,18325.187,-0.366,-0.061,-0.244,-0.00048,1.01220,0.04589,28.50
$IMU,18325.189,-0.427,0.000,-0.427,-0.00292,1.01074,0.04296,28.50
$IMU,18325.191,-0.427,0.000,-0.488,-0.00634,1.00830,0.04345,28.50
$IMU,18325.194,-0.305,-0.061,-0.366,-0.00781,1.00830,0.04394,28.55
$IMU,18325.196,-0.244,0.061,-0.244,-0.00878,1.01416,0.04101,28.55
$MAG,18325.197,-0.334,-0.525,-0.264,27.7
$IMU,18325.198,-0.061,0.000,-0.183,-0.00878,1.01562,0.04492,28.55
$IMU,18325.201,0.000,-0.061,-0.183,-0.01025,1.01367,0.04345,28.55
$BARO,18325.203,86928.73,28.83
$IMU,18325.203,-0.122,-0.061,-0.244,-0.01025,1.01513,0.04541,28.55
$IMU,18325.205,-0.183,0.000,-0.305,-0.00976,1.01220,0.04394,28.55
$MAG,18325.207,-0.321,-0.517,-0.265,28.0
$IMU,18325.208,-0.305,-0.183,-0.366,-0.01171,1.01660,0.04589,28.55
$IMU,18325.210,-0.488,-0.183,-0.244,-0.01220,1.01416,0.04394,28.55
$IMU,18325.212,-0.793,0.061,-0.183,-0.01416,1.01025,0.04052,28.51
$IMU,18325.215,-0.671,-0.061,-0.122,-0.01464,1.00732,0.04101,28.51
$MAG,18325.217,-0.319,-0.529,-0.259,28.0
$IMU,18325.217,-0.671,0.000,-0.061,-0.01220,1.01367,0.04443,28.51
$IMU,18325.219,-0.488,0.000,0.061,-0.01269,1.01269,0.04785,28.51
$IMU,18325.222,-0.366,-0.183,0.183,-0.00878,1.00781,0.04736,28.51
$IMU,18325.224,-0.427,-0.244,0.244,-0.00488,1.00634,0.04785,28.51
$IMU,18325.226,-0.488,0.122,0.122,-0.00048,1.00732,0.04443,28.51
$MAG,18325.228,-0.322,-0.526,-0.262,28.0
$IMU,18325.229,-0.549,0.061,-0.061,-0.00292,1.01123,0.04541,28.51
$IMU,18325.231,-0.610,-0.061,-0.244,-0.00341,1.01464,0.04296,28.50
$IMU,18325.233,-0.488,-0.061,-0.366,-0.00634,1.01416,0.04394,28.50
$IMU,18325.236,-0.366,-0.061,-0.366,-0.00830,1.01367,0.04589,28.50
$MAG,18325.238,-0.319,-0.532,-0.262,28.0
$IMU,18325.238,-0.183,-0.061,-0.366,-0.00927,1.01464,0.04394,28.50
$IMU,18325.240,0.000,-0.183,-0.366,-0.00732,1.01220,0.04541,28.50
$IMU,18325.243,0.061,-0.061,-0.183,-0.00878,1.00683,0.04638,28.50
$IMU,18325.245,0.122,0.000,-0.061,-0.00878,1.00830,0.04345,28.50
$MAG,18325.248,-0.324,-0.538,-0.259,27.8
$IMU,18325.248,0.183,-0.244,-0.183,-0.01074,1.01123,0.04589,28.50
$IMU,18325.250,0.244,-0.122,-0.244,-0.00878,1.01269,0.04345,28.53
$IMU,18325.252,0.061,0.061,-0.366,-0.00976,1.01171,0.04541,28.53
$IMU,18325.255,0.122,0.000,-0.366,-0.00927,1.01416,0.04296,28.53
$IMU,18325.257,0.061,0.000,-0.305,-0.00830,1.01416,0.04345,28.53
$MAG,18325.258,-0.328,-0.526,-0.258,27.7
$IMU,18325.259,0.122,-0.122,-0.183,-0.01367,1.01025,0.04492,28.53
$IMU,18325.262,0.122,-0.122,0.000,-0.00927,1.00781,0.04541,28.53
$IMU,18325.264,0.061,-0.183,0.061,-0.00878,1.01220,0.04248,28.53
$IMU,18325.266,-0.122,0.000,0.122,-0.00781,1.01269,0.04199,28.53
$MAG,18325.268,-0.322,-0.528,-0.264,27.7
$IMU,18325.269,-0.244,-0.061,0.122,-0.00878,1.01074,0.04345,28.52
$IMU,18325.271,-0.305,-0.244,0.000,-0.00439,1.01416,0.04492,28.52
$IMU,18325.273,-0.488,-0.122,-0.183,-0.00390,1.01513,0.04296,28.52
$IMU,18325.276,-0.488,-0.122,-0.305,-0.00585,1.01367,0.04345,28.52
$MAG,18325.278,-0.322,-0.523,-0.256,27.7
$IMU,18325.278,-0.549,-0.122,-0.244,-0.00585,1.01513,0.04443,28.52
$IMU,18325.280,-0.610,0.000,-0.183,-0.00537,1.01220,0.04248,28.52
$IMU,18325.283,-0.610,0.000,-0.244,-0.00830,1.01367,0.04492,28.52
$IMU,18325.285,-0.549,-0.122,-0.244,-0.00976,1.01464,0.04638,28.52
$IMU,18325.287,-0.549,-0.061,-0.244,-0.00732,1.01220,0.04443,28.51
$MAG,18325.288,-0.327,-0.519,-0.252,27.7
$IMU,18325.290,-0.488,0.000,-0.305,-0.01074,1.01513,0.04443,28.51
$IMU,18325.292,-0.427,-0.183,-0.305,-0.00732,1.01318,0.04589,28.51
$IMU,18325.294,-0.488,-0.061,-0.305,-0.00732,1.01220,0.04492,28.51
$IMU,18325.297,-0.366,0.000,-0.305,-0.01269,1.01074,0.04345,28.51
$MAG,18325.298,-0.324,-0.522,-0.259,27.8
$IMU,18325.299,-0.305,-0.122,-0.244,-0.00781,1.00976,0.04394,28.51
$IMU,18325.301,-0.244,-0.122,-0.183,-0.00830,1.00927,0.04638,28.51
$BARO,18325.304,86928.61,28.83
$IMU,18325.304,-0.183,-0.061,-0.122,-0.00634,1.01025,0.04394,28.51
$IMU,18325.306,-0.183,-0.061,-0.122,-0.00781,1.01416,0.04345,28.57
$MAG,18325.308,-0.325,-0.523,-0.259,27.8
$IMU,18325.308,-0.061,-0.061,-0.122,-0.00878,1.01318,0.04296,28.57
$IMU,18325.311,0.000,-0.122,-0.244,-0.00390,1.01220,0.04443,28.57
$IMU,18325.313,0.000,-0.183,-0.305,-0.00683,1.01269,0.04150,28.57
$IMU,18325.316,-0.122,-0.122,-0.244,-0.00976,1.01269,0.04443,28.57
$MAG,18325.318,-0.324,-0.529,-0.268,28.0
$IMU,18325.318,-0.244,0.000,-0.122,-0.01025,1.01074,0.04687,28.57
$IMU,18325.320,-0.244,0.000,-0.244,-0.01171,1.01171,0.04785,28.57
$IMU,18325.323,-0.183,-0.061,-0.183,-0.01269,1.00976,0.04199,28.57
$IMU,18325.325,-0.244,-0.061,-0.122,-0.01171,1.01611,0.04541,28.52
$IMU,18325.327,-0.305,-0.061,0.000,-0.00830,1.01562,0.04785,28.52
$MAG,18325.328,-0.319,-0.526,-0.264,27.7
$IMU,18325.330,-0.305,-0.061,-0.122,-0.00830,1.01074,0.04736,28.52
$IMU,18325.332,-0.183,-0.122,-0.122,-0.00634,1.01416,0.04443,28.52
$IMU,18325.334,-0.183,-0.122,-0.122,-0.00781,1.01123,0.04394,28.52
$IMU,18325.337,-0.183,-0.122,-0.183,-0.00927,1.01220,0.04492,28.52
$MAG,18325.339,-0.321,-0.516,-0.261,27.7
$IMU,18325.339,-0.183,-0.122,-0.183,-0.00390,1.01562,0.04345,28.52
$IMU,18325.341,-0.244,-0.122,-0.244,-0.00683,1.01416,0.04394,28.52
$IMU,18325.344,-0.244,0.000,-0.305,-0.00927,1.01171,0.04589,28.51
$IMU,18325.346,-0.244,0.000,-0.244,-0.00878,1.01367,0.04345,28.51
$IMU,18325.348,-0.183,-0.183,-0.183,-0.00781,1.01318,0.04345,28.51
$MAG,18325.349,-0.325,-0.531,-0.256,27.7
$IMU,18325.351,-0.183,-0.122,-0.122,-0.00976,1.01269,0.04248,28.51
$IMU,18325.353,-0.244,0.000,-0.183,-0.00927,1.01757,0.04492,28.51
$IMU,18325.355,-0.244,-0.061,-0.244,-0.00781,1.01660,0.04492,28.51
$IMU,18325.358,-0.244,-0.061,-0.244,-0.00585,1.01464,0.04443,28.51
$MAG,18325.359,-0.322,-0.525,-0.259,27.7
$IMU,18325.360,-0.244,-0.061,-0.244,-0.00878,1.01220,0.04394,28.51
$IMU,18325.362,-0.122,-0.122,-0.244,-0.00976,1.01171,0.04394,28.53
$IMU,18325.365,-0.183,-0.061,-0.244,-0.00927,1.01416,0.04248,28.53
$IMU,18325.367,-0.183,-0.122,-0.183,-0.01025,1.01025,0.04248,28.53
$MAG,18325.369,-0.322,-0.529,-0.259,27.7
$IMU,18325.369,-0.244,-0.061,-0.183,-0.00878,1.01220,0.04199,28.53
$IMU,18325.372,-0.183,-0.244,-0.122,-0.00683,1.00830,0.04345,28.53
$IMU,18325.374,-0.183,-0.183,-0.183,-0.00634,1.00976,0.04492,28.53
$IMU,18325.377,-0.244,-0.183,-0.183,-0.00830,1.01123,0.04492,28.53
$MAG,18325.379,-0.330,-0.516,-0.264,27.6
$IMU,18325.379,-0.305,-0.061,-0.183,-0.00390,1.00976,0.04345,28.53
$IMU,18325.381,-0.305,0.000,-0.122,-0.00732,1.00927,0.04443,28.55
$IMU,18325.384,-0.244,0.061,-0.183,-0.00634,1.01025,0.04101,28.55
$IMU,18325.386,-0.183,-0.122,-0.183,-0.00830,1.01318,0.04541,28.55
$IMU,18325.388,-0.244,-0.122,-0.183,-0.00976,1.01367,0.04638,28.55
$MAG,18325.389,-0.319,-0.528,-0.256,27.7
$IMU,18325.391,-0.305,-0.122,-0.244,-0.00732,1.01269,0.04394,28.55
$IMU,18325.393,-0.244,-0.061,-0.183,-0.00634,1.01123,0.04589,28.55
$IMU,18325.395,-0.305,0.000,-0.122,-0.00927,1.01123,0.04443,28.55
$IMU,18325.398,-0.305,0.000,-0.122,-0.00732,1.01513,0.04443,28.55
$MAG,18325.399,-0.331,-0.528,-0.259,27.7
$IMU,18325.400,-0.305,-0.122,-0.122,-0.00830,1.01318,0.04394,28.53
$IMU,18325.402,-0.244,-0.061,-0.061,-0.00878,1.01660,0.04394,28.53
$BARO,18325.405,86917.74,28.84
$IMU,18325.405,-0.244,-0.061,-0.122,-0.00878,1.01367,0.04638,28.53
$IMU,18325.407,-0.427,0.000,-0.122,-0.00732,1.01562,0.04589,28.53
$IMU,18325.409,-0.427,-0.061,-0.244,-0.00830,1.01367,0.04492,28.53
$MAG,18325.409,-0.331,-0.523,-0.265,27.7
$IMU,18325.412,-0.305,-0.122,-0.183,-0.00781,1.01708,0.04492,28.53
$IMU,18325.414,-0.305,-0.183,-0.061,-0.01220,1.01123,0.04492,28.53
$IMU,18325.416,-0.244,-0.122,-0.122,-0.00830,1.01123,0.04296,28.53
$MAG,18325.419,-0.318,-0.520,-0.262,27.7
$IMU,18325.419,-0.244,-0.183,-0.183,-0.00683,1.01318,0.04394,28.52
$IMU,18325.421,-0.183,-0.183,-0.183,-0.01025,1.01464,0.04394,28.52
$IMU,18325.423,-0.244,0.061,-0.122,-0.00732,1.01269,0.04296,28.52
$IMU,18325.426,-0.244,-0.061,-0.183,-0.00927,1.01318,0.04345,28.52
$IMU,18325.428,-0.305,0.000,-0.183,-0.00634,1.01025,0.04589,28.52
$MAG,18325.429,-0.319,-0.520,-0.271,27.8
$IMU,18325.430,-0.366,0.122,-0.244,-0.00488,1.01220,0.04638,28.52
$IMU,18325.433,-0.305,0.061,-0.183,-0.00830,1.01269,0.04492,28.52
$IMU,18325.435,-0.183,0.000,-0.183,-0.01025,1.01269,0.04443,28.52
$IMU,18325.438,-0.122,-0.122,-0.183,-0.00976,1.01464,0.04443,28.54
$MAG,18325.439,-0.324,-0.520,-0.256,27.7
$IMU,18325.440,-0.061,-0.061,-0.183,-0.00585,1.01220,0.04296,28.54
$IMU,18325.442,-0.061,-0.061,-0.305,-0.00537,1.01123,0.04199,28.54
$IMU,18325.445,-0.061,-0.061,-0.244,-0.00878,1.00976,0.04541,28.54
$IMU,18325.447,0.000,-0.183,-0.244,-0.00683,1.01025,0.04345,28.54
$IMU,18325.449,0.000,-0.244,-0.183,-0.01123,1.01171,0.04443,28.54
$MAG,18325.450,-0.327,-0.532,-0.256,27.8
$IMU,18325.452,0.000,-0.427,-0.183,-0.00927,1.00781,0.04541,28.54
$IMU,18325.454,-0.061,-0.244,-0.183,-0.01025,1.01367,0.04345,28.54
$IMU,18325.456,-0.183,-0.061,0.000,-0.00927,1.01513,0.04443,28.54
$IMU,18325.459,-0.244,-0.061,-0.061,-0.01171,1.01464,0.04394,28.54
$MAG,18325.460,-0.327,-0.528,-0.258,28.1
$IMU,18325.461,-0.305,-0.122,-0.122,-0.00683,1.01367,0.04492,28.54
$IMU,18325.463,-0.366,-0.061,-0.183,-0.00683,1.01562,0.04199,28.54
$IMU,18325.466,-0.305,-0.183,-0.061,-0.00585,1.01416,0.04541,28.54
$IMU,18325.468,-0.427,-0.061,-0.061,-0.00488,1.01464,0.04638,28.54
$MAG,18325.470,-0.324,-0.522,-0.261,27.7
$IMU,18325.470,-0.549,0.122,-0.061,-0.00732,1.01220,0.04296,28.54
$IMU,18325.473,-0.488,-0.061,-0.061,-0.00537,1.01318,0.04638,28.54
$IMU,18325.475,-0.549,0.000,-0.061,-0.00488,1.01318,0.04492,28.50
$IMU,18325.477,-0.549,0.000,-0.183,-0.00634,1.01416,0.04345,28.50
$MAG,18325.480,-0.328,-0.522,-0.261,27.7
$IMU,18325.480,-0.488,-0.183,-0.122,-0.00830,1.01074,0.04589,28.50
$IMU,18325.482,-0.488,0.000,-0.183,-0.00830,1.01464,0.04541,28.50
$IMU,18325.484,-0.427,0.000,-0.183,-0.00878,1.01269,0.04345,28.50
$IMU,18325.487,-0.427,0.061,-0.122,-0.01025,1.01318,0.04296,28.50
$IMU,18325.489,-0.305,-0.061,-0.122,-0.00683,1.01318,0.04394,28.50
$MAG,18325.490,-0.318,-0.523,-0.261,27.7
$IMU,18325.491,-0.427,-0.061,-0.122,-0.00537,1.01562,0.04345,28.50
$IMU,18325.494,-0.366,-0.061,-0.305,-0.00781,1.01416,0.04296,28.53
$IMU,18325.496,-0.305,-0.061,-0.244,-0.00878,1.01220,0.04296,28.53
$IMU,18325.499,-0.244,-0.183,-0.305,-0.00878,1.01171,0.04443,28.53
$MAG,18325.500,-0.325,-0.529,-0.264,27.6
$IMU,18325.501,-0.244,-0.061,-0.183,-0.00976,1.01025,0.04443,28.53
$IMU,18325.503,-0.183,0.061,-0.122,-0.00927,1.01318,0.04882,28.53
$IMU,18325.506,0.122,-0.427,-0.061,-0.00585,1.01171,0.04638,28.53
$BARO,18325.507,86916.66,28.84
$IMU,18325.508,0.000,-0.183,-0.061,-0.00683,1.01269,0.04394,28.53
$MAG,18325.510,-0.322,-0.531,-0.268,27.8
$IMU,18325.510,-0.061,-0.122,-0.122,-0.00878,1.01220,0.04443,28.53
$IMU,18325.513,0.000,-0.122,-0.122,-0.00585,1.01562,0.04443,28.56
$IMU,18325.515,0.000,-0.061,-0.244,-0.00878,1.01269,0.04541,28.56
$IMU,18325.517,-0.061,-0.061,-0.183,-0.00781,1.01269,0.04248,28.56
$MAG,18325.520,-0.319,-0.523,-0.265,28.0
$IMU,18325.520,-0.061,0.000,-0.122,-0.00537,1.01171,0.04492,28.56
$IMU,18325.522,-0.061,-0.061,-0.122,-0.00732,1.01123,0.04150,28.56
$IMU,18325.524,-0.061,0.000,-0.061,-0.00830,1.01220,0.04199,28.56
$IMU,18325.527,-0.122,0.000,-0.122,-0.01025,1.01269,0.04296,28.56
$IMU,18325.529,-0.061,-0.183,-0.183,-0.00878,1.01269,0.04394,28.56
$MAG,18325.530,-0.319,-0.526,-0.265,27.8
$IMU,18325.531,-0.183,-0.061,-0.183,-0.00976,1.01269,0.04345,28.55
$IMU,18325.534,-0.305,0.122,-0.183,-0.00683,1.01562,0.04345,28.55
$IMU,18325.536,-0.244,-0.061,-0.244,-0.00781,1.01367,0.04394,28.55
$IMU,18325.538,-0.366,-0.061,-0.122,-0.00830,1.01171,0.04296,28.55
$MAG,18325.540,-0.328,-0.523,-0.256,27.8
$IMU,18325.541,-0.366,-0.122,-0.122,-0.00488,1.01464,0.04443,28.55
$IMU,18325.543,-0.366,-0.122,-0.122,-0.00634,1.01562,0.04345,28.55
$IMU,18325.545,-0.427,-0.061,-0.061,-0.00927,1.01171,0.04248,28.55
$IMU,18325.548,-0.488,-0.122,-0.122,-0.00585,1.01269,0.04345,28.55
$IMU,18325.550,-0.488,-0.183,-0.183,-0.00878,1.01416,0.04248,28.55
$MAG,18325.551,-0.321,-0.526,-0.253,27.7
$IMU,18325.552,-0.305,-0.366,-0.183,-0.00488,1.01318,0.04394,28.55
$IMU,18325.555,-0.427,-0.183,-0.122,-0.00683,1.00830,0.04296,28.55
$IMU,18325.557,-0.427,-0.122,-0.122,-0.00537,1.01269,0.04638,28.55
$IMU,18325.560,-0.366,-0.061,-0.122,-0.00878,1.01269,0.04199,28.55
$MAG,18325.561,-0.322,-0.526,-0.265,27.7
$IMU,18325.562,-0.427,0.000,-0.122,-0.00439,1.01318,0.04150,28.55
$IMU,18325.564,-0.366,-0.061,-0.183,-0.00439,1.01123,0.04394,28.55
$IMU,18325.567,-0.244,-0.061,-0.244,-0.00634,1.01074,0.04394,28.55
$IMU,18325.569,-0.305,-0.122,-0.305,-0.00732,1.01269,0.04443,28.54
$MAG,18325.571,-0.328,-0.520,-0.265,27.8
$IMU,18325.571,-0.366,0.061,-0.244,-0.00781,1.01074,0.04736,28.54
$IMU,18325.574,-0.366,0.122,-0.183,-0.00634,1.01220,0.04638,28.54
$IMU,18325.576,-0.305,0.000,-0.122,-0.00976,1.01171,0.04248,28.54
$IMU,18325.578,-0.244,-0.061,-0.061,-0.00585,1.01025,0.04589,28.54
$IMU,18325.581,-0.183,0.000,-0.122,-0.00781,1.01464,0.04541,28.54
$MAG,18325.581,-0.321,-0.531,-0.262,27.6
$IMU,18325.583,-0.244,-0.061,-0.122,-0.00732,1.01318,0.04394,28.54
$IMU,18325.585,-0.183,-0.122,-0.122,-0.00781,1.01269,0.04443,28.54
$IMU,18325.588,-0.122,-0.061,-0.183,-0.00488,1.01220,0.04492,28.52
$IMU,18325.590,-0.122,-0.183,-0.183,-0.00781,1.01367,0.04443,28.52
$MAG,18325.591,-0.319,-0.526,-0.264,28.0
$IMU,18325.592,0.000,-0.366,-0.122,-0.00634,1.01367,0.04589,28.52
$IMU,18325.595,-0.244,-0.122,-0.122,-0.00585,1.00927,0.04492,28.52
$IMU,18325.597,-0.183,-0.122,-0.183,-0.00878,1.01513,0.04248,28.52
$IMU,18325.599,-0.183,0.000,-0.183,-0.00781,1.01123,0.04541,28.52
$MAG,18325.601,-0.325,-0.525,-0.267,28.0
$IMU,18325.602,-0.305,0.000,-0.122,-0.00830,1.01171,0.04345,28.52
$IMU,18325.604,-0.305,-0.061,-0.244,-0.00976,1.01123,0.04541,28.52
$IMU,18325.606,-0.305,-0.183,-0.244,-0.00781,1.01416,0.04248,28.54
$BARO,18325.608,86927.34,28.85
$IMU,18325.609,-0.305,0.000,-0.183,-0.01025,1.01660,0.04443,28.54
$MAG,18325.611,-0.315,-0.525,-0.264,27.8
$IMU,18325.611,-0.305,0.000,-0.122,-0.00976,1.00878,0.04443,28.54
$IMU,18325.613,-0.305,0.000,-0.122,-0.01074,1.01367,0.04541,28.54
$IMU,18325.616,-0.366,-0.061,-0.122,-0.00683,1.01171,0.04785,28.54
$IMU,18325.618,-0.305,-0.061,-0.183,-0.00732,1.01123,0.04443,28.54
$IMU,18325.621,-0.305,-0.244,-0.122,-0.00927,1.00976,0.04492,28.54
$MAG,18325.621,-0.322,-0.534,-0.256,27.7
$IMU,18325.623,-0.183,-0.122,-0.244,-0.01025,1.01318,0.04541,28.54
$IMU,18325.625,-0.244,0.000,-0.244,-0.00781,1.01074,0.04736,28.51
$IMU,18325.628,-0.244,0.000,-0.183,-0.01123,1.01464,0.04248,28.51
$IMU,18325.630,-0.122,-0.244,-0.183,-0.00781,1.01318,0.04150,28.51
$MAG,18325.631,-0.325,-0.525,-0.255,27.8
$IMU,18325.632,-0.061,-0.183,-0.061,-0.00927,1.01171,0.04492,28.51
$IMU,18325.635,-0.122,-0.122,-0.061,-0.00878,1.01025,0.04296,28.51
$IMU,18325.637,-0.183,-0.061,-0.061,-0.00585,1.01123,0.04589,28.51
$IMU,18325.639,-0.244,0.000,-0.183,-0.00781,1.00976,0.04345,28.51
$MAG,18325.641,-0.328,-0.528,-0.259,27.7
$IMU,18325.642,-0.244,-0.122,-0.305,-0.01074,1.01464,0.04199,28.51
$IMU,18325.644,-0.183,-0.183,-0.244,-0.00537,1.01269,0.04394,28.58
$IMU,18325.646,-0.183,-0.183,-0.183,-0.00878,1.00976,0.04492,28.58
$IMU,18325.649,-0.244,-0.122,-0.122,-0.00781,1.01220,0.04589,28.58
$MAG,18325.651,-0.324,-0.522,-0.262,27.7
$IMU,18325.651,-0.305,-0.061,-0.122,-0.00732,1.01220,0.04248,28.58
$IMU,18325.653,-0.305,-0.122,-0.061,-0.00537,1.01367,0.04248,28.58
$IMU,18325.656,-0.366,-0.061,-0.122,-0.00878,1.01318,0.04296,28.58
$IMU,18325.658,-0.366,-0.122,-0.122,-0.00537,1.01123,0.04589,28.58
$IMU,18325.660,-0.305,-0.061,-0.183,-0.00537,1.01171,0.04736,28.58
$MAG,18325.662,-0.327,-0.529,-0.262,27.8
$IMU,18325.663,-0.366,-0.122,-0.183,-0.00927,1.01367,0.04541,28.51
$IMU,18325.665,-0.427,0.000,-0.183,-0.01025,1.01660,0.04687,28.51
$IMU,18325.667,-0.366,-0.061,-0.183,-0.00927,1.01025,0.04296,28.51
$IMU,18325.670,-0.366,-0.061,-0.183,-0.00585,1.01025,0.04394,28.51
$IMU,18325.672,-0.366,-0.183,-0.122,-0.00927,1.01123,0.04492,28.51
$MAG,18325.672,-0.327,-0.528,-0.255,27.7
$IMU,18325.674,-0.305,-0.122,-0.183,-0.00732,1.01171,0.04541,28.51
$IMU,18325.677,-0.366,0.061,-0.244,-0.00488,1.01171,0.04296,28.51
$IMU,18325.679,-0.305,-0.061,-0.244,-0.00927,1.01123,0.04345,28.51
$MAG,18325.682,-0.321,-0.531,-0.262,27.8
$IMU,18325.682,-0.183,-0.244,-0.183,-0.00634,1.01025,0.04589,28.56
$IMU,18325.684,-0.183,-0.122,-0.183,-0.00683,1.01367,0.04638,28.56
$IMU,18325.686,-0.183,-0.244,-0.122,-0.00683,1.01220,0.04443,28.56
$IMU,18325.689,-0.183,0.000,-0.061,-0.00732,1.01171,0.04541,28.56
$IMU,18325.691,-0.061,-0.122,-0.122,-0.00634,1.01513,0.04492,28.56
$MAG,18325.692,-0.327,-0.529,-0.259,27.7
$IMU,18325.693,-0.244,-0.061,-0.183,-0.00927,1.01367,0.04785,28.56
$IMU,18325.696,-0.244,-0.122,-0.244,-0.00927,1.01367,0.04394,28.56
$IMU,18325.698,-0.183,-0.061,-0.244,-0.00927,1.00878,0.04150,28.56
$IMU,18325.700,-0.244,0.000,-0.244,-0.00976,1.01171,0.04150,28.55
$MAG,18325.702,-0.319,-0.526,-0.264,27.8
$IMU,18325.703,-0.183,0.000,-0.183,-0.00927,1.01367,0.04248,28.55
$IMU,18325.705,-0.122,0.000,-0.183,-0.00683,1.01123,0.04345,28.55
$IMU,18325.707,-0.122,-0.061,-0.061,-0.00732,1.01171,0.04541,28.55
$BARO,18325.710,86929.90,28.85
$IMU,18325.710,-0.122,-0.122,-0.122,-0.00732,1.01464,0.04492,28.55
$MAG,18325.712,-0.330,-0.516,-0.256,28.0
$IMU,18325.712,-0.244,0.000,-0.122,-0.00341,1.01171,0.04394,28.55
$IMU,18325.714,-0.183,-0.122,-0.183,-0.00976,1.01025,0.04150,28.55
$IMU,18325.717,-0.244,0.000,-0.244,-0.00781,1.00976,0.04638,28.55
$IMU,18325.719,-0.305,-0.061,-0.183,-0.01123,1.01025,0.04492,28.53
$IMU,18325.721,-0.244,-0.183,-0.122,-0.00781,1.01074,0.04248,28.53
$MAG,18325.722,-0.324,-0.522,-0.264,28.0
$IMU,18325.724,-0.244,-0.122,-0.061,-0.00781,1.01269,0.04492,28.53
$IMU,18325.726,-0.305,0.000,-0.061,-0.00732,1.01318,0.04492,28.53
$IMU,18325.728,-0.366,-0.061,-0.061,-0.00488,1.01220,0.04492,28.53
$IMU,18325.731,-0.305,-0.122,-0.061,-0.00341,1.01611,0.04589,28.53
$MAG,18325.732,-0.325,-0.538,-0.259,28.1
$IMU,18325.733,-0.366,-0.122,-0.183,-0.00634,1.01367,0.04443,28.53
$IMU,18325.735,-0.366,-0.061,-0.183,-0.00732,1.01367,0.04589,28.53
$IMU,18325.738,-0.366,-0.122,-0.244,-0.00878,1.01123,0.04736,28.54
$IMU,18325.740,-0.305,-0.061,-0.183,-0.00927,1.01513,0.04248,28.54
$MAG,18325.742,-0.331,-0.522,-0.258,28.0
$IMU,18325.742,-0.305,-0.061,-0.122,-0.00976,1.01367,0.04589,28.54
$IMU,18325.745,-0.305,-0.061,-0.061,-0.00878,1.01220,0.04492,28.54
$IMU,18325.747,-0.305,-0.061,-0.061,-0.00781,1.01269,0.04785,28.54
$IMU,18325.750,-0.427,0.183,-0.183,-0.01074,1.01269,0.04492,28.54
$MAG,18325.752,-0.321,-0.523,-0.262,28.0
$IMU,18325.752,-0.305,0.000,-0.244,-0.00781,1.01611,0.04296,28.54
$IMU,18325.754,-0.305,0.061,-0.183,-0.00683,1.01171,0.04101,28.54
$IMU,18325.757,-0.244,0.000,-0.122,-0.00927,1.00976,0.04150,28.51
$IMU,18325.759,-0.122,-0.183,-0.122,-0.00732,1.01464,0.04296,28.51
$IMU,18325.761,-0.183,-0.183,-0.061,-0.00585,1.01513,0.04394,28.51
$MAG,18325.762,-0.322,-0.517,-0.267,27.7
$IMU,18325.764,-0.183,-0.122,-0.122,-0.00537,1.01611,0.04785,28.51
$IMU,18325.766,-0.244,0.000,-0.122,-0.01025,1.01318,0.04394,28.51
$IMU,18325.768,-0.244,0.000,-0.183,-0.00683,1.01220,0.04443,28.51
$IMU,18325.771,-0.122,-0.122,-0.122,-0.00830,1.01171,0.04687,28.51
$MAG,18325.773,-0.322,-0.519,-0.256,27.7
$IMU,18325.773,-0.122,-0.122,-0.183,-0.00927,1.01416,0.04736,28.51
$IMU,18325.775,-0.183,-0.183,-0.183,-0.00830,1.01464,0.04589,28.53
$IMU,18325.778,-0.183,0.000,-0.122,-0.00537,1.01123,0.04589,28.53
$IMU,18325.780,-0.183,0.000,-0.122,-0.00537,1.01171,0.04248,28.53
$IMU,18325.782,-0.183,-0.061,-0.183,-0.00732,1.01318,0.04541,28.53
$MAG,18325.783,-0.324,-0.520,-0.264,28.1
$IMU,18325.785,-0.122,-0.183,-0.122,-0.00976,1.01416,0.04589,28.53
$IMU,18325.787,-0.244,0.000,-0.305,-0.00488,1.01513,0.04492,28.53
$IMU,18325.789,-0.244,-0.061,-0.183,-0.00878,1.01074,0.04296,28.53
$IMU,18325.792,-0.305,0.000,-0.183,-0.00830,1.01123,0.04394,28.53
$MAG,18325.793,-0.316,-0.531,-0.259,28.0
$IMU,18325.794,-0.122,-0.183,-0.122,-0.00830,1.01269,0.04492,28.57
$IMU,18325.796,-0.122,-0.244,-0.061,-0.00781,1.01171,0.04248,28.57
$IMU,18325.799,-0.183,-0.183,-0.183,-0.00732,1.01220,0.04492,28.57
$IMU,18325.801,-0.244,-0.122,-0.183,-0.00830,1.01416,0.04687,28.57
$MAG,18325.803,-0.324,-0.523,-0.258,27.8
$IMU,18325.803,-0.305,-0.122,-0.183,-0.01074,1.01269,0.04589,28.57
$IMU,18325.806,-0.366,0.061,-0.122,-0.00781,1.01074,0.04589,28.57
$IMU,18325.808,-0.366,0.000,-0.122,-0.00976,1.01220,0.04589,28.57
$BARO,18325.811,86921.44,28.85
$IMU,18325.811,-0.305,-0.122,-0.061,-0.01025,1.01464,0.04736,28.57
$MAG,18325.813,-0.333,-0.517,-0.258,27.7
$IMU,18325.813,-0.366,0.000,-0.122,-0.00732,1.01367,0.04199,28.55
$IMU,18325.815,-0.427,0.000,-0.061,-0.00830,1.01416,0.04101,28.55
$IMU,18325.818,-0.366,-0.061,-0.183,-0.00488,1.01269,0.04150,28.55
$IMU,18325.820,-0.366,-0.122,-0.183,-0.00927,1.01367,0.04443,28.55
$IMU,18325.822,-0.366,-0.061,-0.122,-0.00585,1.01318,0.04492,28.55
$MAG,18325.823,-0.319,-0.519,-0.259,27.6
$IMU,18325.825,-0.305,-0.061,-0.183,-0.00878,1.01269,0.04345,28.55
$IMU,18325.827,-0.244,-0.122,-0.183,-0.00683,1.01318,0.03906,28.55
$IMU,18325.829,-0.305,-0.122,-0.122,-0.00927,1.00927,0.04345,28.55
$IMU,18325.832,-0.183,-0.122,-0.183,-0.00732,1.01708,0.04541,28.56
$VBAT,18325.832,4.142
$MAG,18325.833,-0.325,-0.531,-0.256,27.7
$IMU,18325.834,-0.122,-0.305,-0.122,-0.00878,1.01416,0.04589,28.56
$IMU,18325.836,-0.183,-0.244,-0.183,-0.00830,1.01416,0.04296,28.56
$IMU,18325.839,-0.183,-0.183,-0.183,-0.00927,1.01269,0.04443,28.56
$IMU,18325.841,-0.305,-0.061,-0.183,-0.00781,1.01220,0.04638,28.56
$MAG,18325.843,-0.328,-0.531,-0.267,27.7
$IMU,18325.843,-0.305,0.000,-0.244,-0.00878,1.01025,0.04589,28.56
$IMU,18325.846,-0.305,0.000,-0.244,-0.00683,1.01220,0.04541,28.56
$IMU,18325.848,-0.122,0.000,-0.244,-0.00634,1.01123,0.04443,28.56
$IMU,18325.850,-0.122,-0.061,-0.244,-0.01074,1.01171,0.04296,28.53
$MAG,18325.853,-0.321,-0.520,-0.256,27.7
$IMU,18325.853,-0.183,0.061,-0.183,-0.00927,1.01123,0.04345,28.53
$IMU,18325.855,-0.244,0.061,-0.244,-0.00732,1.01269,0.04492,28.53
$IMU,18325.857,-0.183,0.000,-0.183,-0.00976,1.01171,0.04443,28.53
$IMU,18325.860,-0.183,-0.122,-0.244,-0.00976,1.01123,0.04443,28.53
$IMU,18325.862,-0.183,-0.122,-0.244,-0.00878,1.01123,0.04248,28.53
$MAG,18325.863,-0.321,-0.529,-0.270,27.7
$IMU,18325.864,-0.183,-0.061,-0.183,-0.00927,1.01269,0.04492,28.53
$IMU,18325.867,-0.244,-0.061,-0.183,-0.00976,1.01367,0.04394,28.53
$IMU,18325.869,-0.244,-0.061,-0.183,-0.00634,1.01074,0.04345,28.58
$IMU,18325.872,-0.122,-0.244,-0.122,-0.00878,1.01464,0.04394,28.58
$MAG,18325.874,-0.330,-0.528,-0.264,27.8
$IMU,18325.874,-0.122,-0.305,-0.122,-0.01074,1.01123,0.04150,28.58
$IMU,18325.876,-0.244,-0.122,-0.122,-0.00830,1.01123,0.04296,28.58
$IMU,18325.879,-0.244,-0.061,-0.183,-0.00634,1.01025,0.04541,28.58
$IMU,18325.881,-0.305,-0.122,-0.183,-0.00781,1.01367,0.04443,28.58
$IMU,18325.883,-0.366,-0.061,-0.183,-0.00878,1.01562,0.04345,28.58
$MAG,18325.884,-0.331,-0.522,-0.255,27.8
$IMU,18325.886,-0.366,-0.061,-0.183,-0.00878,1.01660,0.04199,28.58
$IMU,18325.888,-0.427,0.183,-0.183,-0.00927,1.01171,0.04394,28.56
$IMU,18325.890,-0.427,0.000,-0.122,-0.00830,1.01513,0.04589,28.56
$IMU,18325.893,-0.366,-0.061,0.000,-0.00732,1.01269,0.04589,28.56
$MAG,18325.894,-0.324,-0.522,-0.256,27.8
$IMU,18325.895,-0.427,0.000,-0.061,-0.00683,1.01416,0.04443,28.56
$IMU,18325.897,-0.488,0.061,-0.122,-0.00537,1.00976,0.04345,28.56
$IMU,18325.900,-0.427,-0.061,-0.183,-0.00732,1.01269,0.04345,28.56
$IMU,18325.902,-0.366,-0.183,-0.244,-0.01025,1.01464,0.04296,28.56
$MAG,18325.904,-0.316,-0.526,-0.255,27.8
$IMU,18325.904,-0.427,0.000,-0.244,-0.00537,1.00781,0.04443,28.56
$IMU,18325.907,-0.366,0.000,-0.183,-0.00830,1.01416,0.04443,28.57
$IMU,18325.909,-0.427,0.000,-0.183,-0.00585,1.01367,0.04492,28.57
$IMU,18325.911,-0.183,-0.244,-0.183,-0.00732,1.01318,0.04492,28.57
$BARO,18325.913,86916.35,28.85
$MAG,18325.914,-0.328,-0.535,-0.256,28.1
$IMU,18325.914,-0.244,-0.122,-0.183,-0.00976,1.01025,0.04296,28.57
$IMU,18325.916,-0.305,-0.061,-0.183,-0.00927,1.01416,0.04736,28.57
$IMU,18325.918,-0.244,-0.061,-0.183,-0.00976,1.01318,0.04394,28.57
$IMU,18325.921,-0.305,0.000,-0.183,-0.00976,1.01074,0.04394,28.57
$IMU,18325.923,-0.244,-0.061,-0.183,-0.00878,1.01123,0.04541,28.57
$MAG,18325.924,-0.330,-0.529,-0.264,27.8
$IMU,18325.925,-0.061,-0.183,-0.244,-0.00976,1.00976,0.04492,28.57
$IMU,18325.928,-0.061,-0.122,-0.183,-0.00878,1.01318,0.04394,28.57
$IMU,18325.930,0.000,-0.122,-0.183,-0.01074,1.01171,0.04248,28.57
$IMU,18325.933,-0.244,0.183,-0.122,-0.01025,1.01074,0.04248,28.57
$MAG,18325.934,-0.330,-0.525,-0.258,28.1
$IMU,18325.935,-0.061,-0.244,-0.122,-0.00878,1.01171,0.04492,28.57
$IMU,18325.937,-0.061,-0.061,-0.122,-0.00683,1.01269,0.04296,28.57
$IMU,18325.940,-0.244,0.061,-0.061,-0.00830,1.01025,0.04443,28.57
$IMU,18325.942,-0.122,-0.122,-0.122,-0.00732,1.01269,0.04589,28.57
$MAG,18325.944,-0.324,-0.523,-0.267,27.7
$IMU,18325.944,-0.183,-0.061,-0.122,-0.00878,1.01123,0.04638,28.57
$IMU,18325.947,-0.244,0.000,-0.244,-0.00732,1.01416,0.04394,28.57
$IMU,18325.949,-0.244,-0.061,-0.183,-0.00634,1.01220,0.04345,28.57
$IMU,18325.951,-0.244,-0.061,-0.183,-0.00781,1.01318,0.04492,28.57
$MAG,18325.954,-0.324,-0.529,-0.262,28.0
$IMU,18325.954,-0.305,0.061,-0.244,-0.01171,1.01171,0.04492,28.57
$IMU,18325.956,-0.366,0.122,-0.244,-0.00830,1.01464,0.04296,28.57
$IMU,18325.958,-0.366,0.061,-0.183,-0.00634,1.01464,0.04248,28.57
$IMU,18325.961,-0.244,-0.061,-0.183,-0.00634,1.01171,0.04296,28.57
$IMU,18325.963,-0.244,-0.183,-0.183,-0.00878,1.01171,0.04199,28.56
$MAG,18325.964,-0.327,-0.529,-0.264,28.0
$IMU,18325.965,-0.366,-0.061,-0.122,-0.00830,1.01416,0.04443,28.56
$IMU,18325.968,-0.366,-0.061,-0.183,-0.00488,1.01171,0.04345,28.56
$IMU,18325.970,-0.427,-0.061,-0.244,-0.00390,1.01513,0.04638,28.56
$IMU,18325.972,-0.427,-0.061,-0.244,-0.00683,1.01367,0.04443,28.56
$MAG,18325.974,-0.325,-0.519,-0.264,27.7
$IMU,18325.975,-0.244,-0.305,-0.122,-0.00683,1.01464,0.04101,28.56
$IMU,18325.977,-0.305,-0.244,-0.122,-0.00927,1.01171,0.04296,28.56
$IMU,18325.979,-0.305,-0.122,-0.183,-0.01074,1.01660,0.04638,28.56
$IMU,18325.982,-0.183,-0.183,-0.183,-0.00830,1.01318,0.04492,28.55
$IMU,18325.984,-0.305,-0.122,-0.183,-0.00683,1.01025,0.04492,28.55
$MAG,18325.985,-0.336,-0.526,-0.268,27.7
$IMU,18325.986,-0.244,-0.122,-0.244,-0.00830,1.00927,0.04638,28.55
$IMU,18325.989,-0.366,-0.061,-0.183,-0.01074,1.01025,0.04638,28.55
$IMU,18325.991,-0.305,-0.061,-0.122,-0.00976,1.00976,0.04785,28.55
$IMU,18325.994,-0.305,0.000,-0.061,-0.00878,1.00878,0.04443,28.55
$MAG,18325.995,-0.321,-0.526,-0.256,27.6
$IMU,18325.996,-0.305,0.183,-0.183,-0.00781,1.01074,0.04345,28.55
$IMU,18325.998,-0.244,0.000,-0.122,-0.00781,1.01464,0.04443,28.55
$IMU,18326.001,-0.305,-0.061,-0.244,-0.00781,1.01074,0.04443,28.53
$IMU,18326.003,-0.183,-0.122,-0.244,-0.00830,1.01318,0.04541,28.53
$MAG,18326.005,-0.331,-0.528,-0.261,27.8
$IMU,18326.005,-0.122,-0.122,-0.244,-0.00683,1.00927,0.04687,28.53
$IMU,18326.008,-0.183,-0.061,-0.183,-0.00537,1.00830,0.04492,28.53
$IMU,18326.010,-0.244,0.000,-0.061,-0.00781,1.00976,0.04541,28.53
$IMU,18326.012,-0.183,-0.122,-0.061,-0.01025,1.00976,0.04492,28.53
$BARO,18326.014,86922.66,28.85
$MAG,18326.015,-0.321,-0.528,-0.259,28.0
$IMU,18326.015,-0.061,-0.183,-0.183,-0.00927,1.01171,0.04345,28.53
$IMU,18326.017,-0.183,-0.061,-0.183,-0.00927,1.01171,0.04492,28.53
$IMU,18326.019,-0.183,-0.122,-0.244,-0.01074,1.00976,0.04589,28.56
$IMU,18326.022,-0.122,-0.122,-0.244,-0.01074,1.00976,0.04248,28.56
$IMU,18326.024,-0.244,-0.061,-0.244,-0.00976,1.01074,0.04394,28.56
$MAG,18326.025,-0.322,-0.522,-0.267,27.8
$IMU,18326.026,-0.183,-0.061,-0.061,-0.01318,1.01269,0.04736,28.56
$IMU,18326.029,-0.244,-0.061,0.000,-0.00927,1.01269,0.04443,28.56
$IMU,18326.031,-0.244,0.122,0.000,-0.01367,1.01171,0.04394,28.56
$IMU,18326.033,-0.366,0.183,0.000,-0.01123,1.01220,0.04394,28.56
$MAG,18326.035,-0.328,-0.529,-0.264,28.1
$IMU,18326.036,-0.305,0.122,-0.061,-0.00878,1.01318,0.04589,28.56
$IMU,18326.038,-0.244,-0.061,-0.183,-0.00976,1.01464,0.04589,28.55
$IMU,18326.040,-0.305,-0.122,-0.183,-0.00830,1.01562,0.04394,28.55
$IMU,18326.043,-0.305,-0.244,-0.122,-0.01025,1.01660,0.04199,28.55
$MAG,18326.045,-0.328,-0.517,-0.261,27.8
$IMU,18326.045,-0.366,-0.122,0.000,-0.00976,1.01123,0.04443,28.55
$IMU,18326.047,-0.305,-0.061,0.061,-0.00878,1.01269,0.04492,28.55
$IMU,18326.050,-0.305,-0.061,0.000,-0.00439,1.01464,0.04443,28.55
$IMU,18326.052,-0.244,-0.305,0.061,-0.00683,1.01416,0.04443,28.55
$MAG,18326.055,-0.325,-0.529,-0.255,27.8
$IMU,18326.055,-0.366,-0.122,-0.122,-0.00634,1.01269,0.04638,28.55
$IMU,18326.057,-0.427,-0.061,-0.061,-0.00537,1.01464,0.04736,28.57
$IMU,18326.059,-0.549,-0.061,-0.061,-0.00830,1.01269,0.04736,28.57
$IMU,18326.062,-0.488,-0.183,-0.061,-0.00634,1.01611,0.04833,28.57
$IMU,18326.064,-0.610,0.000,-0.122,-0.00585,1.01757,0.04589,28.57
$MAG,18326.065,-0.327,-0.531,-0.268,27.8
$IMU,18326.066,-0.610,-0.061,-0.122,-0.00634,1.01660,0.04394,28.57
$IMU,18326.069,-0.549,-0.061,-0.183,-0.00585,1.01611,0.04541,28.57
$IMU,18326.071,-0.549,0.000,-0.305,-0.00439,1.01513,0.04443,28.57
$IMU,18326.073,-0.427,0.000,-0.244,-0.00830,1.01464,0.04394,28.57
$MAG,18326.075,-0.327,-0.520,-0.268,27.7
$IMU,18326.076,-0.366,-0.122,-0.183,-0.00634,1.01513,0.04589,28.59
$IMU,18326.078,-0.305,-0.061,-0.183,-0.00878,1.01416,0.04589,28.59
$IMU,18326.080,-0.183,0.061,-0.183,-0.00585,1.01416,0.04736,28.59
$IMU,18326.083,-0.122,0.061,-0.244,-0.00439,1.01367,0.04443,28.59
$MAG,18326.085,-0.322,-0.522,-0.268,27.7
$IMU,18326.085,-0.061,-0.061,-0.244,-0.00732,1.01318,0.04638,28.59
$IMU,18326.087,0.183,-0.183,-0.366,-0.00830,1.01074,0.04589,28.59
$IMU,18326.090,0.183,-0.122,-0.427,-0.00585,1.00781,0.04248,28.59
$IMU,18326.092,0.122,-0.061,-0.366,-0.00537,1.00830,0.04541,28.59
$IMU,18326.094,0.244,-0.061,-0.305,-0.01025,1.00878,0.04541,28.56
$MAG,18326.096,-0.331,-0.514,-0.261,27.7
$IMU,18326.097,0.183,0.122,-0.366,-0.01074,1.00830,0.04687,28.56
$IMU,18326.099,0.366,-0.061,-0.244,-0.01074,1.00341,0.04541,28.56
$IMU,18326.101,0.183,-0.061,-0.183,-0.00830,1.01025,0.04394,28.56
$IMU,18326.104,0.183,0.000,-0.122,-0.00683,1.01025,0.04345,28.56
$MAG,18326.106,-0.333,-0.523,-0.258,27.8
$IMU,18326.106,0.183,-0.122,-0.183,-0.01123,1.01171,0.04541,28.56
$IMU,18326.108,0.061,-0.061,-0.244,-0.00927,1.01269,0.04150,28.56
$IMU,18326.111,-0.061,-0.061,-0.244,-0.01171,1.01416,0.04101,28.56
$IMU,18326.113,-0.061,-0.122,-0.122,-0.00878,1.01318,0.04101,28.50
$IMU,18326.115,-0.061,-0.305,-0.061,-0.00878,1.01318,0.04199,28.50
$BARO,18326.116,86918.98,28.85
$MAG,18326.116,-0.318,-0.526,-0.262,27.7
$IMU,18326.118,-0.183,-0.427,0.122,-0.00830,1.01123,0.04248,28.50
$IMU,18326.120,-0.366,-0.122,0.122,-0.00634,1.01611,0.04248,28.50
$IMU,18326.123,-0.488,-0.183,0.122,-0.00537,1.01416,0.04296,28.50
$IMU,18326.125,-0.671,0.061,0.000,-0.00878,1.01708,0.04296,28.50
$MAG,18326.126,-0.331,-0.522,-0.253,28.0
$IMU,18326.127,-0.793,0.000,-0.061,-0.00781,1.01806,0.04345,28.50
$IMU,18326.130,-0.732,-0.183,-0.122,-0.00634,1.01708,0.04296,28.50
$IMU,18326.132,-0.793,-0.122,-0.122,-0.00439,1.01708,0.04492,28.54
$IMU,18326.134,-0.976,0.122,-0.183,-0.00341,1.01855,0.04492,28.54
$MAG,18326.136,-0.321,-0.526,-0.262,27.8
$IMU,18326.137,-0.976,0.122,-0.305,-0.00683,1.01367,0.04687,28.54
$IMU,18326.139,-0.976,0.000,-0.305,-0.00732,1.01220,0.04638,28.54
$IMU,18326.141,-0.854,0.000,-0.244,-0.00585,1.01318,0.04638,28.54
$IMU,18326.144,-0.732,-0.183,-0.366,-0.00732,1.01416,0.04736,28.54
$MAG,18326.146,-0.325,-0.526,-0.264,27.7
$IMU,18326.146,-0.671,-0.122,-0.366,-0.00878,1.01171,0.04736,28.54
$IMU,18326.148,-0.549,-0.061,-0.305,-0.00830,1.01464,0.04736,28.54
$IMU,18326.151,-0.488,-0.061,-0.305,-0.01025,1.00976,0.04833,28.55
$IMU,18326.153,-0.366,-0.305,-0.244,-0.01025,1.01123,0.04589,28.55
$IMU,18326.155,-0.244,-0.427,-0.183,-0.00927,1.01171,0.04785,28.55
$MAG,18326.156,-0.322,-0.529,-0.261,27.7
$IMU,18326.158,-0.244,-0.183,-0.183,-0.00830,1.01123,0.04687,28.55
$IMU,18326.160,-0.183,-0.061,-0.183,-0.00927,1.01025,0.04638,28.55
$IMU,18326.162,-0.122,0.000,-0.122,-0.01074,1.00976,0.04492,28.55
$HUM,18326.163,59.8,29.3
$IMU,18326.165,0.000,-0.061,-0.061,-0.00878,1.00683,0.04785,28.55
$MAG,18326.166,-0.336,-0.520,-0.262,27.8
$IMU,18326.167,0.122,-0.183,-0.122,-0.01074,1.00585,0.04394,28.55
$IMU,18326.169,0.244,-0.183,-0.061,-0.00634,1.00878,0.04638,28.57
$IMU,18326.172,0.122,0.061,-0.061,-0.00732,1.00878,0.04589,28.57
$IMU,18326.174,0.061,0.244,-0.061,-0.00683,1.00537,0.04345,28.57
$MAG,18326.176,-0.331,-0.528,-0.265,28.1
$IMU,18326.176,0.122,0.000,-0.122,-0.00683,1.01074,0.04443,28.57
$IMU,18326.179,0.183,-0.122,-0.122,-0.00781,1.01123,0.04394,28.57
$IMU,18326.181,0.244,0.000,-0.122,-0.00488,1.01269,0.04541,28.57
$IMU,18326.184,0.183,-0.122,-0.244,-0.00634,1.01220,0.04296,28.57
$MAG,18326.186,-0.327,-0.519,-0.259,27.8
$IMU,18326.186,0.183,-0.183,-0.244,-0.00537,1.01318,0.04296,28.57
$IMU,18326.188,0.122,-0.061,-0.244,-0.00927,1.01611,0.04150,28.60
$IMU,18326.191,0.000,0.000,-0.122,-0.00976,1.01269,0.04296,28.60
$IMU,18326.193,0.000,-0.122,-0.122,-0.01171,1.01025,0.04443,28.60
$IMU,18326.195,-0.122,-0.122,-0.061,-0.00732,1.01611,0.04541,28.60
$MAG,18326.196,-0.325,-0.526,-0.259,27.7
$IMU,18326.198,-0.244,0.000,-0.183,-0.00976,1.01416,0.04150,28.60
$IMU,18326.200,-0.366,-0.061,-0.122,-0.00830,1.01562,0.04199,28.60
$IMU,18326.202,-0.366,-0.122,-0.183,-0.00732,1.01367,0.04394,28.60
$IMU,18326.205,-0.488,0.000,-0.183,-0.00976,1.01416,0.04443,28.60
$MAG,18326.207,-0.327,-0.520,-0.262,27.7
$IMU,18326.207,-0.427,-0.183,-0.122,-0.01025,1.01269,0.04199,28.57
$IMU,18326.209,-0.549,-0.122,-0.122,-0.00976,1.01562,0.04296,28.57
$IMU,18326.212,-0.671,0.061,-0.061,-0.00781,1.01416,0.04296,28.57
$IMU,18326.214,-0.671,0.061,-0.122,-0.00634,1.01171,0.04199,28.57
$IMU,18326.216,-0.671,-0.122,-0.183,-0.00878,1.01416,0.04394,28.57
$BARO,18326.217,86919.37,28.85
$MAG,18326.217,-0.330,-0.526,-0.258,27.8
$IMU,18326.219,-0.671,-0.244,-0.183,-0.00781,1.01123,0.04199,28.57
$IMU,18326.221,-0.610,-0.122,-0.183,-0.00781,1.01318,0.04638,28.57
$IMU,18326.223,-0.610,-0.183,-0.244,-0.00781,1.01074,0.04492,28.57
$IMU,18326.226,-0.610,0.000,-0.183,-0.01025,1.00976,0.04833,28.56
$MAG,18326.227,-0.330,-0.528,-0.271,27.8
$IMU,18326.228,-0.549,0.000,-0.061,-0.00634,1.01318,0.04589,28.56
$IMU,18326.230,-0.549,-0.061,-0.061,-0.00781,1.00878,0.04687,28.56
$IMU,18326.233,-0.366,-0.122,-0.122,-0.00976,1.01123,0.04589,28.56
$IMU,18326.235,-0.427,0.061,-0.122,-0.00927,1.00878,0.04443,28.56
$MAG,18326.237,-0.324,-0.534,-0.259,27.7
$IMU,18326.237,-0.366,0.122,-0.183,-0.00830,1.00976,0.04541,28.56
$IMU,18326.240,-0.305,-0.061,-0.183,-0.01171,1.00976,0.04345,28.56
$IMU,18326.242,-0.183,0.000,-0.061,-0.00976,1.01123,0.04541,28.56
$IMU,18326.245,-0.122,-0.122,-0.061,-0.00341,1.01123,0.04638,28.55
$MAG,18326.247,-0.325,-0.525,-0.262,27.8
$IMU,18326.247,-0.061,-0.183,-0.061,-0.00488,1.01074,0.04345,28.55
$IMU,18326.249,-0.061,-0.122,0.000,-0.00585,1.01123,0.04296,28.55
$IMU,18326.252,-0.122,-0.061,-0.061,-0.00732,1.01171,0.04443,28.55
$IMU,18326.254,0.000,-0.122,-0.183,-0.00585,1.01025,0.04736,28.55
$IMU,18326.256,0.122,-0.244,-0.183,-0.00634,1.01074,0.04541,28.55
$MAG,18326.257,-0.325,-0.522,-0.261,27.7
$IMU,18326.259,0.122,-0.244,-0.244,-0.00537,1.01513,0.04541,28.55
$IMU,18326.261,0.000,-0.061,-0.183,-0.00781,1.01464,0.04394,28.55
$IMU,18326.263,0.061,0.000,-0.183,-0.00830,1.01611,0.04345,28.56
$IMU,18326.266,0.000,-0.061,-0.183,-0.00683,1.01562,0.04589,28.56
$MAG,18326.267,-0.330,-0.525,-0.255,27.7
$IMU,18326.268,0.000,-0.061,-0.183,-0.00634,1.00976,0.04541,28.56
$IMU,18326.270,0.061,-0.061,-0.183,-0.00732,1.01757,0.04492,28.56
$IMU,18326.273,0.000,-0.122,-0.244,-0.00927,1.01464,0.04248,28.56
$IMU,18326.275,-0.122,0.000,-0.305,-0.00878,1.01269,0.04443,28.56
$MAG,18326.277,-0.325,-0.528,-0.265,27.8
$IMU,18326.277,-0.122,0.061,-0.244,-0.00585,1.01025,0.04199,28.56
$IMU,18326.280,-0.183,0.000,-0.244,-0.01025,1.00976,0.04296,28.56
$IMU,18326.282,-0.183,-0.061,-0.183,-0.01074,1.01269,0.03906,28.58
$IMU,18326.284,-0.183,-0.183,-0.061,-0.00732,1.01269,0.04150,28.58
$MAG,18326.287,-0.327,-0.529,-0.258,27.7
$IMU,18326.287,-0.305,-0.183,-0.061,-0.00732,1.01171,0.04052,28.58
$IMU,18326.289,-0.366,-0.122,-0.122,-0.00878,1.01220,0.04296,28.58
$IMU,18326.291,-0.488,0.000,-0.183,-0.00634,1.01025,0.04345,28.58
$IMU,18326.294,-0.488,-0.305,-0.244,-0.00927,1.01074,0.04394,28.58
$IMU,18326.296,-0.549,-0.244,-0.183,-0.00585,1.00781,0.04394,28.58
$MAG,18326.297,-0.319,-0.522,-0.259,28.1
$IMU,18326.298,-0.610,-0.122,0.000,-0.00488,1.01074,0.04443,28.58
$IMU,18326.301,-0.671,-0.183,0.000,-0.00537,1.01171,0.04296,28.56
$IMU,18326.303,-0.610,-0.183,-0.061,-0.00732,1.01171,0.04492,28.56
$IMU,18326.306,-0.671,-0.061,-0.122,-0.00683,1.01220,0.04589,28.56
$MAG,18326.308,-0.322,-0.531,-0.264,28.0
$IMU,18326.308,-0.671,-0.061,-0.183,-0.00878,1.01318,0.04492,28.56
$IMU,18326.310,-0.610,-0.122,-0.183,-0.00830,1.01123,0.04638,28.56
$IMU,18326.313,-0.610,-0.061,-0.183,-0.00976,1.01269,0.04443,28.56
$IMU,18326.315,-0.671,0.183,-0.122,-0.00634,1.01220,0.04687,28.56
$IMU,18326.317,-0.549,0.122,-0.244,-0.00683,1.01269,0.04687,28.56
$MAG,18326.318,-0.324,-0.531,-0.268,27.7
$BARO,18326.319,86922.54,28.86
$IMU,18326.320,-0.427,0.000,-0.183,-0.01171,1.01562,0.04687,28.55
$IMU,18326.322,-0.305,-0.061,-0.122,-0.00537,1.01416,0.04638,28.55
$IMU,18326.324,-0.244,-0.183,-0.183,-0.00488,1.01318,0.04931,28.55
$IMU,18326.327,-0.183,-0.122,-0.183,-0.00781,1.01513,0.04785,28.55
$MAG,18326.328,-0.327,-0.529,-0.267,28.0
$IMU,18326.329,-0.122,-0.061,-0.305,-0.01025,1.01562,0.04443,28.55
$IMU,18326.331,-0.122,-0.061,-0.183,-0.01025,1.01757,0.04736,28.55
$IMU,18326.334,0.061,-0.122,-0.183,-0.00781,1.01123,0.04736,28.55
$IMU,18326.336,0.183,-0.183,-0.061,-0.00927,1.01318,0.04785,28.55
$MAG,18326.338,-0.328,-0.522,-0.265,28.0
$IMU,18326.338,0.122,-0.122,-0.122,-0.00683,1.01660,0.05078,28.58
$IMU,18326.341,0.122,-0.061,-0.183,-0.00927,1.01123,0.04541,28.58
$IMU,18326.343,0.122,0.000,-0.183,-0.00634,1.00781,0.04345,28.58
$IMU,18326.345,0.061,-0.061,-0.244,-0.01074,1.01318,0.04541,28.58
$MAG,18326.348,-0.325,-0.532,-0.262,27.8
$IMU,18326.348,0.061,-0.122,-0.305,-0.00976,1.01367,0.04248,28.58
$IMU,18326.350,0.183,-0.183,-0.244,-0.00830,1.00927,0.04687,28.58
$IMU,18326.352,0.122,-0.183,-0.183,-0.00927,1.01220,0.04589,28.58
$IMU,18326.355,-0.061,0.183,-0.244,-0.00976,1.01220,0.04492,28.58
$IMU,18326.357,0.061,-0.061,-0.183,-0.00732,1.00927,0.04589,28.57
$MAG,18326.358,-0.328,-0.522,-0.255,28.0
$IMU,18326.359,0.000,-0.122,-0.244,-0.00488,1.01025,0.04248,28.57
$IMU,18326.362,-0.183,-0.122,-0.305,-0.00585,1.00976,0.04394,28.57
$IMU,18326.364,-0.122,-0.244,-0.244,-0.00878,1.01074,0.04443,28.57
$IMU,18326.367,-0.183,0.000,-0.122,-0.00927,1.00732,0.04394,28.57
$MAG,18326.368,-0.325,-0.522,-0.262,27.6
$IMU,18326.369,-0.244,-0.061,-0.122,-0.00683,1.00878,0.04296,28.57
$IMU,18326.371,-0.366,0.000,-0.122,-0.00585,1.01318,0.04394,28.57
$IMU,18326.374,-0.366,-0.061,-0.061,-0.00878,1.01318,0.04345,28.57
$IMU,18326.376,-0.427,-0.061,-0.061,-0.00878,1.01464,0.04150,28.58
$MAG,18326.378,-0.330,-0.519,-0.262,27.7
$IMU,18326.378,-0.488,-0.061,-0.122,-0.00634,1.01318,0.04345,28.58
$IMU,18326.381,-0.549,-0.061,-0.122,-0.00634,1.01269,0.04345,28.58
$IMU,18326.383,-0.610,-0.061,-0.122,-0.00634,1.01074,0.04248,28.58
$IMU,18326.385,-0.610,-0.122,-0.122,-0.00634,1.01269,0.04541,28.58
$MAG,18326.388,-0.327,-0.531,-0.262,27.7
$IMU,18326.388,-0.610,-0.183,0.000,-0.00781,1.01464,0.04492,28.58
$IMU,18326.390,-0.671,0.000,-0.122,-0.00781,1.01171,0.04541,28.58
$IMU,18326.392,-0.671,-0.061,-0.122,-0.00683,1.01367,0.04345,28.58
$IMU,18326.395,-0.549,-0.244,-0.122,-0.00683,1.01464,0.04394,28.57
$IMU,18326.397,-0.549,-0.305,-0.183,-0.00634,1.01660,0.04492,28.57
$MAG,18326.398,-0.327,-0.534,-0.258,27.7
$IMU,18326.399,-0.610,-0.244,-0.244,-0.00878,1.01171,0.04638,28.57
$IMU,18326.402,-0.671,-0.122,-0.183,-0.00927,1.01220,0.04785,28.57
$IMU,18326.404,-0.549,0.000,-0.122,-0.00634,1.01269,0.04785,28.57
$IMU,18326.406,-0.549,0.000,-0.122,-0.00488,1.01171,0.04736,28.57
$MAG,18326.408,-0.321,-0.523,-0.261,28.0
$IMU,18326.409,-0.427,-0.061,-0.122,-0.00634,1.01416,0.04882,28.57
$IMU,18326.411,-0.427,0.000,-0.122,-0.00537,1.00976,0.04394,28.57
$IMU,18326.413,-0.427,-0.061,-0.122,-0.00830,1.01171,0.04443,28.53
$IMU,18326.416,-0.427,0.183,-0.122,-0.00390,1.01220,0.04541,28.53
$IMU,18326.418,-0.244,0.000,-0.244,-0.00830,1.01025,0.04687,28.53
$MAG,18326.419,-0.318,-0.523,-0.264,27.8
$BARO,18326.420,86925.90,28.86
$IMU,18326.420,-0.122,-0.061,-0.244,-0.00585,1.01367,0.04931,28.53
$IMU,18326.423,-0.061,-0.061,-0.244,-0.00683,1.01220,0.04492,28.53
$IMU,18326.425,0.122,-0.061,-0.122,-0.00537,1.01269,0.04492,28.53
$IMU,18326.428,0.122,-0.061,-0.061,-0.00585,1.01269,0.04589,28.53
$MAG,18326.429,-0.322,-0.513,-0.259,27.8
$IMU,18326.430,0.183,-0.061,-0.122,-0.00781,1.01220,0.04589,28.53
$IMU,18326.432,0.122,0.000,-0.183,-0.00976,1.01123,0.04833,28.55
$IMU,18326.435,0.305,-0.183,-0.244,-0.00781,1.01318,0.04394,28.55
$IMU,18326.437,0.305,-0.305,-0.305,-0.00976,1.01269,0.04589,28.55
$MAG,18326.439,-0.328,-0.526,-0.271,27.7
$IMU,18326.439,0.305,-0.244,-0.244,-0.01318,1.01220,0.04687,28.55
$IMU,18326.442,0.305,-0.122,-0.244,-0.00830,1.01025,0.04199,28.55
$IMU,18326.444,0.183,0.000,-0.183,-0.00878,1.01513,0.03955,28.55
$IMU,18326.446,0.000,0.000,-0.122,-0.00634,1.01269,0.04150,28.55
$MAG,18326.449,-0.327,-0.522,-0.259,27.7
$IMU,18326.449,0.061,-0.122,-0.122,-0.00781,1.01562,0.04492,28.55
$IMU,18326.451,0.000,-0.122,-0.122,-0.00585,1.01318,0.04345,28.57
$IMU,18326.453,-0.183,-0.061,-0.183,-0.00585,1.01562,0.04296,28.57
$IMU,18326.456,-0.488,0.183,-0.244,-0.00878,1.01513,0.04199,28.57
$IMU,18326.458,-0.366,-0.061,-0.122,-0.00878,1.01318,0.04296,28.57
$MAG,18326.459,-0.333,-0.520,-0.261,27.8
$IMU,18326.460,-0.427,0.000,-0.122,-0.01123,1.01171,0.04248,28.57
$IMU,18326.463,-0.488,0.000,-0.122,-0.00781,1.01318,0.04248,28.57
$IMU,18326.465,-0.549,-0.061,-0.061,-0.00927,1.01318,0.04199,28.57
$IMU,18326.467,-0.549,-0.122,-0.122,-0.00781,1.01318,0.04296,28.57
$MAG,18326.469,-0.324,-0.525,-0.270,28.1
$IMU,18326.470,-0.610,0.000,-0.122,-0.00781,1.01074,0.04443,28.59
$IMU,18326.472,-0.671,0.000,-0.122,-0.00781,1.01416,0.04248,28.59
$IMU,18326.474,-0.610,-0.244,-0.122,-0.00537,1.01513,0.04638,28.59
$IMU,18326.477,-0.549,-0.244,-0.122,-0.01025,1.01464,0.04687,28.59
$MAG,18326.479,-0.327,-0.520,-0.265,28.1
$IMU,18326.479,-0.610,-0.061,-0.183,-0.00634,1.01416,0.04541,28.59
$IMU,18326.481,-0.549,-0.183,-0.122,-0.00390,1.01269,0.04394,28.59
$IMU,18326.484,-0.610,0.000,0.000,-0.00781,1.01269,0.04345,28.59
$IMU,18326.486,-0.427,0.000,-0.061,-0.00976,1.01367,0.04492,28.59
$MAG,18326.489,-0.321,-0.529,-0.261,27.7
$IMU,18326.489,-0.366,-0.183,-0.122,-0.01220,1.00781,0.04638,28.55
$IMU,18326.491,-0.488,0.061,-0.183,-0.01074,1.01416,0.04589,28.55
$IMU,18326.493,-0.366,0.000,-0.122,-0.00634,1.01074,0.04638,28.55
$IMU,18326.496,-0.244,-0.061,-0.183,-0.00683,1.00878,0.04541,28.55
$IMU,18326.498,-0.183,-0.183,-0.122,-0.00732,1.01318,0.04687,28.55
$MAG,18326.499,-0.321,-0.531,-0.259,28.1
$IMU,18326.500,-0.122,-0.061,-0.122,-0.00878,1.01416,0.04687,28.55
$IMU,18326.503,0.000,-0.061,-0.122,-0.00732,1.01562,0.04687,28.55
$IMU,18326.505,0.183,-0.427,-0.122,-0.00585,1.01220,0.04394,28.55
$IMU,18326.507,0.061,-0.061,-0.183,-0.00781,1.01367,0.04199,28.57
$IMU,18326.510,0.061,-0.122,-0.244,-0.00830,1.01416,0.04687,28.57
$MAG,18326.509,-0.319,-0.525,-0.264,27.8
$IMU,18326.512,0.061,-0.061,-0.244,-0.00732,1.00927,0.04492,28.57
$IMU,18326.514,0.061,0.061,-0.244,-0.00878,1.01416,0.04296,28.57
