$FLYS,1
$VAR,FIRMWARE_VER,v2024.12.30
$VAR,DEVICE_ID,0017003b3253501720373657
$VAR,SESSION_ID,8758872293a9dc9d463aaf10
$COL,BARO,time,pressure,temperature
$UNIT,BARO,s,Pa,deg C
$COL,HUM,time,humidity,temperature
$UNIT,HUM,s,percent,deg C
$COL,MAG,time,x,y,z,temperature
$UNIT,MAG,s,gauss,gauss,gauss,deg C
$COL,IMU,time,wx,wy,wz,ax,ay,az,temperature
$UNIT,IMU,s,deg/s,deg/s,deg/s,g,g,g,deg C
$COL,TIME,time,tow,week
$UNIT,TIME,s,s,
$COL,VBAT,time,voltage
$UNIT,VBAT,s,volt
$DATA
$IMU,2560.709,8.605,-21.911,-28.076,0.00878,0.04052,0.81640,28.32
$IMU,2560.711,-8.666,-11.535,-12.878,0.00585,0.04687,0.98974,28.32
$IMU,2560.713,-3.112,-3.479,-0.671,0.00585,0.05371,0.99414,28.32
$IMU,2560.716,-0.854,-1.892,3.784,0.01025,0.04736,0.99902,28.32
$IMU,2560.718,-2.868,-4.333,-6.469,0.01562,0.04687,0.99707,28.32
$IMU,2560.721,5.371,2.075,-0.244,0.02050,0.05175,0.99560,28.32
$IMU,2560.723,0.854,10.375,12.329,0.01953,0.05419,1.00244,28.32
$IMU,2560.725,-3.845,18.432,23.925,0.01416,0.05615,1.00634,28.69
$IMU,2560.728,3.479,5.310,3.295,0.01171,0.05810,1.00341,28.69
$IMU,2560.730,10.498,-7.080,-14.526,0.00634,0.06933,1.00976,28.69
$IMU,2560.732,9.826,-6.835,-14.465,0.00000,0.07763,1.01855,28.69
$IMU,2560.735,9.033,-6.469,-13.610,-0.00195,0.07128,1.02148,28.69
$IMU,2560.737,8.056,-6.225,-12.573,0.00390,0.05957,1.01708,28.69
$IMU,2560.739,6.774,-6.225,-12.817,0.00634,0.04882,1.01855,28.69
$IMU,2560.742,5.920,-5.859,-12.634,0.01123,0.04052,1.01562,28.69
$IMU,2560.744,5.676,-5.432,-12.512,0.01708,0.02636,1.01269,28.73
$IMU,2560.746,4.272,-4.760,-11.657,0.02294,0.02001,1.00000,28.73
$IMU,2560.749,-1.708,-1.770,-2.136,0.02197,0.02636,0.99462,28.73
$IMU,2560.751,-2.502,-1.403,0.244,0.01904,0.02832,1.00341,28.73
$IMU,2560.753,-2.136,-1.525,-0.427,0.02490,0.03417,1.00488,28.73
$IMU,2560.756,-1.953,-1.159,-0.305,0.02539,0.04589,1.00683,28.73
$IMU,2560.758,-1.647,-1.220,0.366,0.02099,0.04345,1.01025,28.73
$IMU,2560.760,-1.464,-1.464,-0.061,0.01416,0.03906,1.01074,28.73
$IMU,2560.763,-1.464,-1.403,-0.549,0.01611,0.04052,1.01269,28.73
$IMU,2560.765,-1.586,-1.831,-0.427,0.01708,0.04150,1.01904,28.73
$IMU,2560.767,-2.075,-2.380,-0.488,0.02294,0.04931,1.02539,28.73
$IMU,2560.770,-2.502,-2.380,-0.671,0.02587,0.04882,1.02343,28.73
$IMU,2560.772,-2.136,-2.807,-0.366,0.02246,0.04492,1.02441,28.73
$IMU,2560.774,-2.319,-2.685,-0.488,0.02685,0.03759,1.02587,28.73
$IMU,2560.777,-2.197,-2.380,-0.854,0.02978,0.03808,1.01513,28.73
$IMU,2560.779,-1.464,-1.708,-1.037,0.03125,0.03466,1.01513,28.73
$IMU,2560.782,-1.220,-1.770,-0.976,0.02880,0.03613,1.01708,28.78
$IMU,2560.784,-1.464,-1.831,-1.220,0.03076,0.03613,1.02392,28.78
$IMU,2560.786,-1.647,-1.708,-1.098,0.03173,0.04931,1.02148,28.78
$IMU,2560.789,-1.831,-1.647,-0.488,0.03613,0.05126,1.02734,28.78
$IMU,2560.791,-2.136,-1.464,-0.122,0.03222,0.05468,1.02880,28.78
$IMU,2560.793,-2.624,-1.403,-0.244,0.02685,0.05322,1.02734,28.78
$IMU,2560.796,-3.173,-0.610,-0.366,0.01904,0.05224,1.02050,28.78
$IMU,2560.798,-3.356,-0.549,-0.732,0.01660,0.05126,1.02539,28.78
$IMU,2560.800,-4.028,-0.427,-1.098,0.01904,0.04101,1.01953,28.79
$IMU,2560.803,-4.638,-0.549,-1.098,0.02636,0.03955,1.02001,28.79
$IMU,2560.805,-5.065,-0.549,-0.732,0.03564,0.03857,1.02246,28.79
$IMU,2560.807,-4.882,-0.305,-0.671,0.02685,0.04296,1.01855,28.79
$IMU,2560.810,-4.638,0.183,-1.281,0.01269,0.04541,1.01513,28.79
$IMU,2560.812,-4.211,0.061,-1.525,0.02343,0.05224,1.00341,28.79
$IMU,2560.814,-3.540,0.366,-0.854,0.03320,0.05175,1.00292,28.79
$IMU,2560.817,-3.356,0.671,-0.488,0.02099,0.04785,1.00585,28.79
$IMU,2560.819,-3.662,0.732,-0.671,0.02343,0.04101,1.01220,28.80
$IMU,2560.821,-3.845,0.854,-0.854,0.02001,0.04345,1.01318,28.80
$IMU,2560.824,-3.540,0.915,-0.793,0.01904,0.04443,1.00927,28.80
$IMU,2560.826,-3.601,0.854,-1.037,0.01074,0.04492,1.01367,28.80
$IMU,2560.828,-2.746,-0.244,-1.647,0.02148,0.03173,1.01269,28.80
$IMU,2560.831,3.540,-4.394,-5.798,0.04589,-0.01416,1.05371,28.80
$IMU,2560.833,8.422,-6.164,-9.033,0.03320,-0.02392,1.06005,28.80
$IMU,2560.835,7.019,-2.502,-8.056,0.01904,0.01611,1.00488,28.80
$IMU,2560.838,5.187,0.793,-6.103,0.01318,0.05468,0.95166,28.77
$IMU,2560.840,4.699,1.342,-4.150,0.01416,0.07568,0.94628,28.77
$IMU,2560.843,4.516,0.366,-3.112,0.00634,0.06591,0.96484,28.77
$IMU,2560.845,3.540,-0.549,-2.258,0.00634,0.06298,0.98925,28.77
$IMU,2560.847,2.502,-1.098,-1.892,0.01416,0.05566,1.00292,28.77
$IMU,2560.850,2.380,-2.197,-1.953,0.01757,0.04541,1.01611,28.77
$IMU,2560.852,2.380,-3.051,-2.319,0.01562,0.04345,1.02490,28.77
$IMU,2560.854,2.197,-3.784,-3.051,0.01562,0.04394,1.03027,28.77
$IMU,2560.857,2.075,-4.577,-3.540,0.01757,0.05175,1.03662,28.79
$IMU,2560.859,0.488,-4.577,-3.845,0.01855,0.07861,1.10009,28.79
$IMU,2560.861,-4.394,-1.953,-4.333,0.01806,0.08593,1.13916,28.79
$IMU,2560.864,-9.948,1.525,-4.089,0.03417,0.08154,1.12011,28.79
$IMU,2560.866,-13.854,3.784,-3.601,0.03466,0.07861,1.07568,28.79
$IMU,2560.868,-16.235,4.882,-3.356,0.03955,0.07617,1.06005,28.79
$IMU,2560.871,-18.371,5.859,-3.173,0.02832,0.06591,1.02441,28.79
$IMU,2560.873,-18.066,5.432,-3.173,0.02490,0.03906,0.96826,28.79
$IMU,2560.875,-15.258,3.417,-3.051,0.02392,0.03173,0.94042,28.77
$IMU,2560.878,-12.268,1.892,-2.807,0.01953,0.02783,0.93310,28.77
$IMU,2560.880,-9.460,1.037,-2.563,0.01904,0.02050,0.93554,28.77
$IMU,2560.882,-6.713,0.366,-2.563,0.02001,0.01269,0.93212,28.77
$IMU,2560.885,-3.845,0.000,-2.197,0.02197,0.01464,0.93945,28.77
$IMU,2560.887,-1.342,-0.183,-1.586,0.02392,0.01757,0.93945,28.77
$IMU,2560.889,0.732,-0.244,-1.281,0.02148,0.02294,0.95117,28.77
$IMU,2560.892,2.258,0.122,-1.098,0.01953,0.03710,0.97558,28.77
$IMU,2560.894,2.563,0.488,-0.976,0.01318,0.04687,0.99511,28.78
$IMU,2560.896,2.197,0.793,-0.854,0.00830,0.05029,1.00732,28.78
$IMU,2560.899,1.403,0.793,-0.427,0.00781,0.04931,1.00781,28.78
$IMU,2560.901,0.305,0.671,-0.305,0.00341,0.05126,1.01074,28.78
$IMU,2560.904,-0.122,0.305,-0.305,0.00683,0.05419,1.00683,28.78
$IMU,2560.906,-0.366,0.183,-0.305,0.00976,0.04833,1.00976,28.78
$IMU,2560.908,-0.305,-0.122,-0.366,0.01220,0.04492,1.01171,28.78
$IMU,2560.911,-0.427,-0.488,-0.549,0.01806,0.04199,1.01269,28.78
$IMU,2560.913,-0.732,-0.488,-0.915,0.02001,0.04150,1.01416,28.81
$IMU,2560.915,-0.915,-0.610,-1.342,0.02148,0.03613,1.01123,28.81
$IMU,2560.918,-1.098,-0.793,-2.014,0.02197,0.03076,1.00976,28.81
$IMU,2560.920,-1.159,-0.610,-2.563,0.02197,0.02832,1.01416,28.81
$IMU,2560.922,-1.281,0.000,-2.807,0.02978,0.03369,1.01757,28.81
$IMU,2560.925,-1.708,0.549,-2.685,0.03027,0.04296,1.02392,28.81
$IMU,2560.927,-2.624,1.403,-1.831,0.02978,0.05859,1.02294,28.81
$IMU,2560.929,-3.417,1.892,-1.342,0.02978,0.06103,1.02685,28.81
$IMU,2560.932,-4.028,2.136,-0.976,0.02880,0.05810,1.01660,28.80
$IMU,2560.934,-4.211,2.319,-0.671,0.02294,0.05615,1.01513,28.80
$IMU,2560.936,-4.577,2.258,-0.366,0.02099,0.05273,1.01660,28.80
$IMU,2560.939,-5.065,1.953,-0.305,0.02490,0.04833,1.02343,28.80
$IMU,2560.941,-5.371,1.892,-0.244,0.02783,0.04296,1.02832,28.80
$IMU,2560.943,-5.859,2.319,-0.183,0.03027,0.04541,1.02978,28.80
$IMU,2560.946,-6.103,2.563,-0.183,0.03125,0.04052,1.02441,28.80
$IMU,2560.948,-6.225,2.929,0.122,0.03076,0.03955,1.02246,28.80
$BARO,2560.949,86429.50,29.05
$IMU,2560.950,-5.981,3.479,0.183,0.02685,0.03906,1.01464,28.80
$IMU,2560.953,-5.554,3.417,0.183,0.02539,0.03613,1.01025,28.80
$MAG,2560.955,-0.345,-0.282,-0.892,27.6
$IMU,2560.955,-5.126,3.356,0.061,0.02050,0.03466,1.00488,28.80
$IMU,2560.957,-4.638,3.295,0.000,0.01513,0.03369,0.99755,28.80
$IMU,2560.960,-4.150,2.929,-0.061,0.01123,0.03369,0.99462,28.80
$IMU,2560.962,-3.784,2.563,-0.366,0.01269,0.03076,0.99511,28.80
$MAG,2560.965,-0.330,-0.279,-0.886,27.6
$IMU,2560.965,-3.356,2.258,-0.549,0.01220,0.02832,0.99414,28.80
$IMU,2560.967,-2.502,1.708,-0.915,0.01123,0.03222,0.99072,28.80
$IMU,2560.969,-1.708,1.342,-1.159,0.01367,0.03076,0.99658,28.87
$IMU,2560.972,-1.159,1.037,-0.976,0.01464,0.03613,1.00634,28.87
$IMU,2560.974,-0.915,0.915,-0.915,0.01464,0.03906,1.01123,28.87
$MAG,2560.975,-0.340,-0.279,-0.900,27.6
$IMU,2560.976,-0.732,0.488,-0.854,0.01708,0.03808,1.01464,28.87
$IMU,2560.979,-0.549,0.122,-0.854,0.01757,0.04101,1.01464,28.87
$IMU,2560.981,-0.366,-0.244,-0.793,0.02050,0.03759,1.01171,28.87
$IMU,2560.983,-0.244,-0.610,-0.671,0.01953,0.03662,1.01318,28.87
$IMU,2560.986,-0.122,-0.793,-0.549,0.02050,0.03955,1.01269,28.87
$MAG,2560.985,-0.345,-0.280,-0.894,27.7
$IMU,2560.988,0.244,-0.915,-0.366,0.01708,0.04345,1.01367,28.82
$IMU,2560.990,0.610,-1.281,-0.305,0.01220,0.04101,1.01367,28.82
$IMU,2560.993,0.549,-1.403,-0.122,0.01269,0.03906,1.01464,28.82
$HUM,2560.994,37.3,29.4
$MAG,2560.995,-0.331,-0.277,-0.889,27.6
$IMU,2560.995,0.488,-1.770,-0.183,0.01904,0.03710,1.01123,28.82
$IMU,2560.997,0.366,-2.014,-0.061,0.02099,0.03564,1.01416,28.82
$IMU,2561.000,0.427,-2.258,0.000,0.01708,0.03466,1.01074,28.82
$IMU,2561.002,0.549,-2.502,0.061,0.01660,0.03613,1.01025,28.82
$IMU,2561.004,0.549,-2.685,0.061,0.02050,0.04003,1.01074,28.82
$MAG,2561.006,-0.340,-0.279,-0.907,27.6
$IMU,2561.007,0.610,-2.990,0.000,0.01904,0.03710,1.01123,28.80
$IMU,2561.009,0.610,-2.990,0.061,0.02294,0.03759,1.00781,28.80
$IMU,2561.011,0.366,-2.319,0.183,0.02587,0.03613,1.00585,28.80
$IMU,2561.014,0.122,-1.708,0.488,0.02539,0.01806,1.00781,28.80
$MAG,2561.016,-0.337,-0.283,-0.900,27.6
$IMU,2561.016,1.342,-0.488,2.502,0.02050,-0.05419,1.01464,28.80
$IMU,2561.018,5.249,1.159,5.310,0.01806,-0.03271,1.02294,28.80
$IMU,2561.021,8.483,1.892,4.516,0.02294,-0.00097,1.02392,28.80
$IMU,2561.023,10.620,1.892,2.746,0.02587,0.01757,1.01611,28.80
$MAG,2561.026,-0.342,-0.273,-0.900,27.6
$IMU,2561.026,11.962,1.708,1.953,0.02832,0.03369,1.00878,28.83
$IMU,2561.028,12.084,1.586,2.197,0.02978,0.04833,1.00683,28.83
$IMU,2561.030,11.352,1.647,2.563,0.02539,0.06005,1.00585,28.83
$IMU,2561.033,10.131,1.403,2.441,0.02050,0.07031,1.00341,28.83
$IMU,2561.035,8.178,1.281,1.892,0.01855,0.08105,1.00585,28.83
$MAG,2561.036,-0.337,-0.283,-0.891,27.6
$IMU,2561.037,5.554,1.586,1.403,0.02587,0.08789,0.99560,28.83
$IMU,2561.040,2.441,1.708,1.098,0.02832,0.08691,0.98828,28.83
$IMU,2561.042,-0.122,1.647,0.671,0.03076,0.08007,0.99169,28.83
$IMU,2561.044,-1.770,1.892,0.488,0.02539,0.06591,0.99072,28.83
$MAG,2561.046,-0.339,-0.279,-0.892,27.6
$IMU,2561.047,-2.624,2.075,0.488,0.02636,0.05371,0.99560,28.83
$IMU,2561.049,-2.929,2.563,0.488,0.02343,0.04296,0.99804,28.83
$BARO,2561.051,86424.60,29.05
$IMU,2561.051,-2.990,2.807,0.488,0.02441,0.03759,0.99755,28.83
$IMU,2561.054,-2.685,2.990,0.183,0.01855,0.03076,0.99316,28.83
$IMU,2561.056,-1.770,2.624,-0.122,0.02197,0.02685,0.99121,28.83
$MAG,2561.056,-0.339,-0.277,-0.895,27.6
$IMU,2561.058,-0.793,2.136,-0.305,0.02441,0.02685,0.99462,28.83
$IMU,2561.061,0.183,1.281,-0.488,0.02246,0.02197,0.99755,28.83
$IMU,2561.063,0.915,0.854,-0.671,0.02001,0.02197,1.00439,28.83
$IMU,2561.065,1.464,0.793,-0.732,0.01318,0.02587,1.01074,28.83
$MAG,2561.066,-0.334,-0.285,-0.898,27.7
$IMU,2561.068,1.586,0.793,-0.671,0.01123,0.03466,1.01269,28.83
$IMU,2561.070,1.586,0.854,-0.366,0.00927,0.03320,1.00927,28.83
$IMU,2561.072,1.647,0.610,-0.122,0.00976,0.03808,1.00976,28.83
$IMU,2561.075,1.464,0.061,0.122,0.00878,0.04736,1.00878,28.83
$MAG,2561.076,-0.339,-0.285,-0.897,27.7
$IMU,2561.077,1.342,-0.305,0.305,0.01074,0.04785,1.00830,28.83
$IMU,2561.079,1.159,-0.427,0.305,0.01123,0.04736,1.01269,28.83
$IMU,2561.082,1.342,-1.037,0.244,0.01660,0.04541,1.01562,28.85
$IMU,2561.084,1.403,-1.159,0.244,0.01611,0.04931,1.01708,28.85
$MAG,2561.086,-0.333,-0.279,-0.894,27.7
$IMU,2561.087,1.220,-1.281,0.122,0.01855,0.05273,1.01562,28.85
$IMU,2561.089,0.610,-1.220,0.000,0.01269,0.05419,1.01074,28.85
$IMU,2561.091,0.000,-1.098,0.000,0.01367,0.05468,1.00732,28.85
$IMU,2561.094,-0.610,-0.793,0.000,0.01123,0.05273,1.00878,28.85
$MAG,2561.096,-0.343,-0.286,-0.892,27.7
$IMU,2561.096,-0.793,-0.366,0.061,0.01464,0.04736,1.00634,28.85
$IMU,2561.098,-0.915,0.183,0.366,0.01562,0.04492,1.00878,28.85
$IMU,2561.101,-1.098,0.427,0.427,0.01708,0.04248,1.00878,28.82
$IMU,2561.103,-1.098,0.732,0.427,0.01904,0.04101,1.01367,28.82
$IMU,2561.105,-1.098,0.915,0.488,0.01904,0.03955,1.01708,28.82
$MAG,2561.107,-0.339,-0.285,-0.901,27.7
$IMU,2561.108,-0.976,0.976,0.488,0.02099,0.04345,1.02197,28.82
$IMU,2561.110,-0.854,1.098,0.488,0.01269,0.04394,1.02343,28.82
$IMU,2561.112,-0.793,1.159,0.427,0.01513,0.04589,1.02050,28.82
$IMU,2561.115,-0.793,1.037,0.366,0.01806,0.04394,1.02148,28.82
$MAG,2561.117,-0.336,-0.279,-0.898,28.1
$IMU,2561.117,-1.098,1.220,0.305,0.01513,0.04785,1.02050,28.82
$IMU,2561.119,-1.342,1.037,0.183,0.01318,0.04736,1.01611,28.80
$IMU,2561.122,-1.342,0.549,0.122,0.01171,0.04980,1.01513,28.80
$IMU,2561.124,-1.281,0.305,0.061,0.01464,0.04882,1.01708,28.80
$IMU,2561.126,-1.159,0.061,0.061,0.01464,0.04003,1.01660,28.80
$MAG,2561.127,-0.331,-0.285,-0.898,27.8
$IMU,2561.129,-1.159,0.000,0.122,0.01953,0.03369,1.01318,28.80
$IMU,2561.131,-1.220,0.000,0.061,0.01855,0.03515,1.01171,28.80
$IMU,2561.133,-0.854,0.061,0.061,0.02197,0.03173,1.01416,28.80
$IMU,2561.136,-0.427,0.610,0.000,0.02539,0.02978,1.01757,28.80
$MAG,2561.137,-0.330,-0.283,-0.897,27.7
$IMU,2561.138,-0.061,1.281,0.000,0.02539,0.03466,1.02148,28.78
$IMU,2561.140,0.000,1.770,0.000,0.02539,0.03271,1.02490,28.78
$IMU,2561.143,-0.183,2.380,0.183,0.02490,0.03173,1.02587,28.78
$IMU,2561.145,-0.244,2.746,0.549,0.02392,0.03466,1.01904,28.78
$MAG,2561.147,-0.343,-0.286,-0.895,28.0
$IMU,2561.147,-0.183,3.051,0.732,0.02490,0.04003,1.01513,28.78
$IMU,2561.150,-0.244,3.112,0.915,0.02490,0.04638,1.01416,28.78
$BARO,2561.152,86434.62,29.06
$IMU,2561.152,-0.366,3.051,0.915,0.02050,0.04443,1.01123,28.78
$IMU,2561.155,-0.610,3.112,0.854,0.02246,0.04736,1.01269,28.78
$IMU,2561.157,-0.793,3.051,0.732,0.02246,0.04052,1.01171,28.86
$MAG,2561.157,-0.337,-0.280,-0.892,27.7
$IMU,2561.159,-0.610,2.990,0.610,0.02294,0.03808,1.00830,28.86
$IMU,2561.162,-0.061,2.868,0.549,0.01708,0.03613,1.00878,28.86
$IMU,2561.164,0.244,3.051,0.488,0.01611,0.03808,1.01220,28.86
$IMU,2561.166,0.549,2.685,0.549,0.01416,0.03808,1.01318,28.86
$MAG,2561.167,-0.337,-0.283,-0.897,27.7
$IMU,2561.169,0.732,2.441,0.549,0.01220,0.03613,1.01708,28.86
$IMU,2561.171,0.854,2.136,0.549,0.01171,0.03613,1.01757,28.86
$IMU,2561.173,0.732,1.831,0.610,0.01416,0.04101,1.01269,28.86
$IMU,2561.176,0.427,1.525,0.671,0.01611,0.03808,1.01123,28.88
$MAG,2561.177,-0.336,-0.282,-0.901,27.7
$IMU,2561.178,0.427,1.098,0.549,0.01416,0.03857,1.01220,28.88
$IMU,2561.180,0.671,1.037,0.610,0.01025,0.04003,1.01123,28.88
$IMU,2561.183,0.915,0.976,0.549,0.00830,0.04638,1.01074,28.88
$IMU,2561.185,1.159,0.610,0.305,0.00976,0.04394,1.01220,28.88
$MAG,2561.187,-0.337,-0.280,-0.895,27.7
$IMU,2561.187,1.098,0.366,0.305,0.01220,0.04492,1.01025,28.88
$IMU,2561.190,0.976,-0.122,0.305,0.01611,0.05029,1.00781,28.88
$IMU,2561.192,0.915,-0.427,0.305,0.01171,0.04931,1.00732,28.88
$IMU,2561.194,0.732,-0.305,0.305,0.01269,0.04736,1.00781,28.88
$MAG,2561.197,-0.334,-0.279,-0.892,27.7
$IMU,2561.197,0.488,-0.427,0.244,0.01220,0.04785,1.01025,28.88
$IMU,2561.199,0.122,-0.244,0.244,0.01660,0.04833,1.01220,28.88
$IMU,2561.201,-0.305,0.122,0.366,0.01464,0.04736,1.00585,28.88
$IMU,2561.204,-0.366,0.366,0.305,0.01611,0.04492,1.00341,28.88
$IMU,2561.206,-0.122,0.427,0.366,0.01855,0.03808,1.00439,28.88
$MAG,2561.207,-0.345,-0.283,-0.894,27.7
$IMU,2561.208,-0.061,0.549,0.488,0.01757,0.03369,1.00781,28.88
$IMU,2561.211,0.061,0.549,0.549,0.01513,0.03417,1.00781,28.88
$IMU,2561.213,0.183,0.610,0.427,0.01757,0.03222,1.00585,28.84
$IMU,2561.216,0.244,0.671,0.366,0.01904,0.03564,1.00537,28.84
$MAG,2561.218,-0.331,-0.285,-0.901,28.0
$IMU,2561.218,0.671,0.488,0.488,0.01416,0.03417,1.00683,28.84
$IMU,2561.220,1.098,0.366,0.366,0.01611,0.03613,1.00634,28.84
$IMU,2561.223,1.403,0.061,0.366,0.01416,0.03613,1.00976,28.84
$IMU,2561.225,1.525,0.061,0.366,0.01806,0.03808,1.01220,28.84
$IMU,2561.227,1.586,0.000,0.366,0.02099,0.03662,1.01855,28.84
$MAG,2561.228,-0.345,-0.277,-0.894,28.0
$IMU,2561.230,1.770,-0.244,0.488,0.02050,0.03906,1.01806,28.84
$IMU,2561.232,2.136,-0.061,0.671,0.01855,0.03271,1.01757,28.84
$IMU,2561.234,2.441,0.122,0.854,0.01953,0.03710,1.01855,28.84
$IMU,2561.237,2.624,0.305,0.976,0.02099,0.04003,1.01513,28.84
$MAG,2561.238,-0.343,-0.273,-0.883,27.7
$IMU,2561.239,2.807,0.305,0.915,0.01660,0.04101,1.01806,28.84
$IMU,2561.241,2.563,0.305,0.976,0.01611,0.04199,1.01513,28.84
$IMU,2561.244,2.441,0.183,0.732,0.01806,0.04101,1.01416,28.84
$IMU,2561.246,2.502,-0.305,0.427,0.01708,0.04394,1.01562,28.84
$MAG,2561.248,-0.330,-0.282,-0.894,27.7
$IMU,2561.248,2.624,-0.549,-0.061,0.01416,0.04248,1.01367,28.84
$IMU,2561.251,2.868,-0.549,-0.183,0.01416,0.04882,1.01220,28.87
$IMU,2561.253,2.990,-0.183,-0.122,0.01562,0.05224,1.01611,28.87
$BARO,2561.254,86426.36,29.06
$IMU,2561.255,2.807,0.061,0.000,0.01708,0.05175,1.01464,28.87
$MAG,2561.258,-0.337,-0.276,-0.897,27.8
$IMU,2561.258,2.441,0.122,0.000,0.01318,0.05322,1.01708,28.87
$IMU,2561.260,1.953,0.366,0.183,0.01123,0.05273,1.01318,28.87
$IMU,2561.262,1.342,0.549,0.244,0.01171,0.05468,1.01513,28.87
$IMU,2561.265,0.854,0.671,0.366,0.01123,0.05419,1.01464,28.87
$IMU,2561.267,0.366,0.854,0.488,0.00781,0.05126,1.01708,28.87
$MAG,2561.268,-0.336,-0.286,-0.888,27.8
$IMU,2561.269,-0.061,0.732,0.244,0.01074,0.04882,1.01708,28.87
$IMU,2561.272,-0.061,0.671,0.183,0.01269,0.05224,1.01611,28.87
$IMU,2561.274,0.183,0.549,0.122,0.01025,0.04248,1.01953,28.87
$IMU,2561.277,0.366,0.244,0.061,0.01025,0.04248,1.01855,28.87
$MAG,2561.278,-0.330,-0.283,-0.901,27.7
$IMU,2561.279,0.610,0.061,0.000,0.01025,0.04150,1.01806,28.87
$IMU,2561.281,0.793,-0.061,0.061,0.01220,0.03955,1.01611,28.87
$IMU,2561.284,1.098,-0.427,0.122,0.00732,0.03613,1.01660,28.87
$IMU,2561.286,1.342,-0.488,0.305,0.01025,0.03808,1.01708,28.87
$MAG,2561.288,-0.334,-0.285,-0.891,28.0
$IMU,2561.288,1.525,-0.427,0.549,0.00927,0.04003,1.01269,28.86
$IMU,2561.291,1.770,-0.549,0.488,0.01318,0.04052,1.01269,28.86
$IMU,2561.293,2.075,-0.854,0.488,0.01416,0.03613,1.01367,28.86
$IMU,2561.295,2.319,-0.915,0.610,0.01464,0.03808,1.01171,28.86
$MAG,2561.298,-0.342,-0.282,-0.892,27.8
$IMU,2561.298,2.441,-0.976,0.732,0.01757,0.04492,1.01318,28.86
$IMU,2561.300,2.441,-0.671,0.671,0.01757,0.04833,1.01123,28.86
$IMU,2561.302,2.441,-0.549,0.671,0.02050,0.04785,1.01367,28.86
$IMU,2561.305,2.380,-0.244,0.549,0.02001,0.04736,1.01513,28.86
$IMU,2561.307,2.319,-0.183,0.488,0.01708,0.04736,1.01757,28.85
$MAG,2561.308,-0.333,-0.282,-0.900,27.7
$IMU,2561.309,1.953,-0.305,0.488,0.01269,0.05712,1.01318,28.85
$IMU,2561.312,1.281,-0.549,0.366,0.01416,0.05712,1.00976,28.85
$IMU,2561.314,0.732,-0.854,0.183,0.01220,0.05761,1.00585,28.85
$IMU,2561.316,0.610,-1.037,0.061,0.02050,0.05419,1.00927,28.85
$MAG,2561.318,-0.337,-0.282,-0.895,27.7
$IMU,2561.319,1.342,-1.403,-0.244,0.02099,0.05029,1.00439,28.85
$IMU,2561.321,2.502,-1.586,-0.427,0.02441,0.04345,1.01074,28.85
$IMU,2561.323,3.051,-1.464,-0.427,0.02343,0.04248,1.01220,28.85
$IMU,2561.326,2.258,-1.281,-0.183,0.01318,0.04638,1.01660,28.85
$IMU,2561.328,0.183,-1.098,0.244,0.00439,0.05468,1.01660,28.85
$MAG,2561.329,-0.342,-0.282,-0.894,27.7
$IMU,2561.330,-2.380,-1.403,0.671,0.00341,0.06347,1.01855,28.85
$IMU,2561.333,-4.394,-1.403,0.671,0.00537,0.06445,1.02246,28.85
$IMU,2561.335,-5.065,-1.464,0.488,0.01074,0.05761,1.01806,28.85
$IMU,2561.338,-4.699,-1.342,0.366,0.01318,0.05273,1.01269,28.85
$MAG,2561.339,-0.336,-0.276,-0.895,28.1
$IMU,2561.340,-4.150,-1.037,0.366,0.01855,0.04394,1.01318,28.85
$IMU,2561.342,-3.540,-0.610,0.366,0.01855,0.04394,1.01318,28.85
$IMU,2561.345,-2.868,-0.671,0.427,0.01708,0.04443,1.01269,28.84
$IMU,2561.347,-2.136,-0.915,0.427,0.01757,0.04736,1.01318,28.84
$MAG,2561.349,-0.333,-0.286,-0.891,28.1
$IMU,2561.349,-2.075,-0.732,0.549,0.01611,0.05126,1.01660,28.84
$IMU,2561.352,-2.380,-0.854,0.671,0.01464,0.05664,1.02001,28.84
$IMU,2561.354,-3.356,-0.732,0.671,0.01416,0.05371,1.01855,28.84
$BARO,2561.355,86429.46,29.07
$IMU,2561.356,-4.455,-0.732,0.671,0.00781,0.05322,1.02050,28.84
$MAG,2561.359,-0.334,-0.283,-0.897,28.0
$IMU,2561.359,-5.310,-0.732,0.488,0.00878,0.04785,1.01855,28.84
$IMU,2561.361,-5.737,-0.976,0.427,0.00830,0.04638,1.01416,28.84
$IMU,2561.363,-5.737,-0.915,0.366,0.01269,0.03955,1.01171,28.89
$IMU,2561.366,-5.371,-0.915,0.366,0.01367,0.03564,1.00878,28.89
$IMU,2561.368,-4.760,-0.854,0.427,0.01464,0.03710,1.00683,28.89
$MAG,2561.369,-0.337,-0.289,-0.888,27.7
$IMU,2561.370,-3.906,-1.159,0.549,0.01562,0.03808,1.00439,28.89
$IMU,2561.373,-3.234,-1.037,0.671,0.01660,0.03662,1.00341,28.89
$IMU,2561.375,-2.807,-0.976,0.671,0.02001,0.04248,1.00634,28.89
$IMU,2561.377,-2.746,-0.854,0.549,0.02050,0.04492,1.00927,28.89
$MAG,2561.379,-0.337,-0.277,-0.900,27.7
$IMU,2561.380,-3.173,-0.427,0.427,0.02001,0.04101,1.01123,28.89
$IMU,2561.382,-3.601,-0.122,0.488,0.01855,0.04052,1.01269,28.87
$IMU,2561.384,-3.845,-0.244,0.488,0.01855,0.03613,1.01220,28.87
$IMU,2561.387,-3.967,-0.427,0.366,0.01904,0.03466,1.01123,28.87
$MAG,2561.389,-0.331,-0.286,-0.900,27.7
$IMU,2561.389,-4.089,-0.366,0.427,0.01855,0.03515,1.01367,28.87
$IMU,2561.391,-3.906,-0.427,0.549,0.01611,0.03710,1.01220,28.87
$IMU,2561.394,-3.417,-0.427,0.610,0.01806,0.03564,1.00976,28.87
$IMU,2561.396,-2.990,-0.244,0.427,0.01806,0.03906,1.01123,28.87
$MAG,2561.399,-0.340,-0.286,-0.900,27.8
$IMU,2561.399,-2.685,-0.183,0.427,0.01855,0.04101,1.01220,28.87
$IMU,2561.401,-2.563,-0.305,0.305,0.02001,0.04296,1.01074,28.83
$IMU,2561.403,-2.563,-0.122,0.366,0.02197,0.04101,1.01416,28.83
$IMU,2561.406,-2.746,0.122,0.305,0.02490,0.03808,1.01269,28.83
$IMU,2561.408,-2.807,0.183,0.366,0.02197,0.04003,1.01074,28.83
$MAG,2561.409,-0.336,-0.274,-0.898,28.0
$IMU,2561.410,-2.746,-0.183,0.366,0.01953,0.04150,1.01220,28.83
$IMU,2561.413,-2.685,-0.244,0.366,0.01904,0.04296,1.01416,28.83
$IMU,2561.415,-2.746,0.000,0.488,0.02148,0.04101,1.01611,28.83
$IMU,2561.417,-2.746,0.061,0.366,0.01855,0.04052,1.01513,28.83
$MAG,2561.419,-0.333,-0.282,-0.901,27.8
$IMU,2561.420,-2.746,0.305,0.366,0.01953,0.04150,1.01025,28.88
$IMU,2561.422,-2.624,0.244,0.366,0.02197,0.04443,1.01318,28.88
$IMU,2561.424,-2.624,0.305,0.366,0.01855,0.04345,1.01757,28.88
$IMU,2561.427,-2.746,0.366,0.488,0.01708,0.04345,1.01757,28.88
$IMU,2561.429,-3.173,0.610,0.427,0.01562,0.04443,1.01806,28.88
$MAG,2561.430,-0.331,-0.283,-0.897,27.8
$IMU,2561.431,-3.417,0.915,0.488,0.01367,0.04736,1.01513,28.88
$IMU,2561.434,-3.479,1.037,0.427,0.01171,0.04931,1.01513,28.88
$IMU,2561.436,-3.479,1.037,0.427,0.01464,0.04931,1.01708,28.88
$IMU,2561.438,-3.662,0.915,0.488,0.01318,0.04492,1.01562,28.89
$MAG,2561.440,-0.336,-0.286,-0.894,27.8
$IMU,2561.441,-3.723,0.732,0.488,0.01074,0.04541,1.01562,28.89
$IMU,2561.443,-3.845,0.732,0.488,0.00830,0.04589,1.01660,28.89
$IMU,2561.445,-3.967,0.671,0.427,0.01025,0.04248,1.01855,28.89
$IMU,2561.448,-4.028,0.549,0.366,0.00830,0.03955,1.01953,28.89
$MAG,2561.450,-0.339,-0.288,-0.895,28.0
$IMU,2561.450,-4.089,0.610,0.305,0.01367,0.04345,1.02294,28.89
$IMU,2561.452,-4.028,0.427,0.427,0.01318,0.04345,1.02001,28.89
$IMU,2561.455,-4.211,0.366,0.427,0.01416,0.04150,1.02246,28.89
$BARO,2561.456,86435.16,29.06
$IMU,2561.457,-4.455,0.244,0.427,0.01855,0.04296,1.02441,28.85
$IMU,2561.460,-4.638,0.488,0.427,0.01416,0.04150,1.02294,28.85
$MAG,2561.460,-0.336,-0.280,-0.901,28.0
$IMU,2561.462,-4.699,0.488,0.244,0.01855,0.04101,1.02246,28.85
$IMU,2561.464,-4.577,0.305,0.122,0.01611,0.03808,1.02001,28.85
$IMU,2561.467,-4.577,0.305,0.000,0.01708,0.03613,1.02392,28.85
$IMU,2561.469,-4.699,0.549,0.183,0.02099,0.03759,1.02441,28.85
$MAG,2561.470,-0.337,-0.282,-0.898,28.1
$IMU,2561.471,-4.882,0.610,0.427,0.02148,0.03808,1.01953,28.85
$IMU,2561.474,-4.882,0.549,0.305,0.01855,0.04052,1.01757,28.85
$IMU,2561.476,-4.821,0.488,0.122,0.01806,0.03759,1.01904,28.86
$IMU,2561.478,-4.821,0.549,0.305,0.02392,0.03320,1.01904,28.86
$MAG,2561.480,-0.334,-0.276,-0.897,27.7
$IMU,2561.481,-5.065,0.854,0.305,0.01904,0.03173,1.01611,28.86
$IMU,2561.483,-5.249,1.037,0.244,0.01562,0.03320,1.01318,28.86
$IMU,2561.485,-5.126,1.037,0.061,0.01757,0.03759,1.01220,28.86
$IMU,2561.488,-4.882,0.915,0.000,0.01953,0.03076,1.00976,28.86
$MAG,2561.490,-0.339,-0.283,-0.901,28.1
$IMU,2561.490,-4.699,0.732,-0.061,0.01757,0.02685,1.00830,28.86
$IMU,2561.492,-4.577,0.610,0.122,0.01611,0.02929,1.01123,28.86
$IMU,2561.495,-4.577,0.671,0.305,0.01562,0.03320,1.00732,28.87
$IMU,2561.497,-4.455,0.732,0.366,0.00927,0.03320,1.00341,28.87
$IMU,2561.499,-4.150,0.915,0.366,0.01220,0.03417,1.00732,28.87
$MAG,2561.500,-0.334,-0.286,-0.904,28.1
$IMU,2561.502,-4.150,1.037,0.366,0.01269,0.02929,1.00781,28.87
$IMU,2561.504,-4.272,0.854,0.488,0.01416,0.02685,1.00732,28.87
$IMU,2561.506,-4.333,0.854,0.488,0.00732,0.02978,1.00292,28.87
$IMU,2561.509,-4.272,0.671,0.366,0.01074,0.03076,1.00146,28.87
$MAG,2561.510,-0.337,-0.270,-0.900,27.8
$IMU,2561.511,-3.967,0.366,0.244,0.01074,0.03076,1.00341,28.87
$IMU,2561.513,-3.662,0.122,0.183,0.01562,0.03076,1.00585,28.92
$IMU,2561.516,-3.479,-0.183,0.122,0.01855,0.03173,1.00878,28.92
$IMU,2561.518,-3.173,-0.427,0.061,0.01806,0.03369,1.01025,28.92
$MAG,2561.520,-0.331,-0.277,-0.898,27.8
$IMU,2561.521,-2.990,-0.488,0.061,0.01904,0.02783,1.01123,28.92
$IMU,2561.523,-3.295,-0.061,0.000,0.02148,0.03076,1.01416,28.92
$IMU,2561.525,-3.234,0.000,-0.122,0.02441,0.02880,1.01416,28.92
$IMU,2561.528,-3.112,0.000,-0.061,0.02441,0.03173,1.01562,28.92
$IMU,2561.530,-3.173,0.305,-0.122,0.02099,0.02734,1.01220,28.92
$MAG,2561.531,-0.330,-0.274,-0.897,28.1
$IMU,2561.532,-3.173,0.366,0.000,0.01904,0.02783,1.01513,28.88
$IMU,2561.535,-3.295,0.610,0.000,0.02050,0.03125,1.01806,28.88
$IMU,2561.537,-3.295,0.549,0.000,0.01904,0.02880,1.01464,28.88
$IMU,2561.539,-3.173,0.183,-0.061,0.02001,0.03222,1.01318,28.88
$MAG,2561.541,-0.343,-0.276,-0.901,27.8
$IMU,2561.542,-3.173,0.061,0.061,0.01855,0.02734,1.01367,28.88
$IMU,2561.544,-3.234,0.366,0.122,0.01611,0.02783,1.01269,28.88
$IMU,2561.546,-3.295,0.671,0.183,0.01367,0.03125,1.01123,28.88
$IMU,2561.549,-3.112,0.793,0.061,0.01416,0.03320,1.00732,28.88
$MAG,2561.551,-0.339,-0.274,-0.901,28.1
$IMU,2561.551,-2.563,0.366,0.000,0.01220,0.03173,1.01025,28.93
$IMU,2561.553,-2.441,0.305,-0.122,0.01269,0.02880,1.01513,28.93
$IMU,2561.556,-2.563,0.244,-0.122,0.01464,0.02734,1.01562,28.93
$BARO,2561.558,86426.97,29.06
$IMU,2561.558,-2.624,0.183,0.061,0.01416,0.02685,1.01757,28.93
$IMU,2561.560,-2.807,0.305,0.183,0.01318,0.02880,1.01367,28.93
$MAG,2561.561,-0.334,-0.271,-0.903,28.0
$IMU,2561.563,-2.746,0.366,0.122,0.01269,0.02832,1.01123,28.93
$IMU,2561.565,-2.624,0.366,0.183,0.01367,0.02783,1.00976,28.93
$IMU,2561.567,-2.441,0.183,0.244,0.01611,0.02929,1.01416,28.93
$IMU,2561.570,-2.563,0.366,0.122,0.01611,0.02832,1.01806,28.89
$MAG,2561.571,-0.336,-0.279,-0.901,28.0
$IMU,2561.572,-2.807,0.732,0.061,0.01562,0.03027,1.01757,28.89
$IMU,2561.574,-2.807,0.793,-0.061,0.01708,0.03125,1.01416,28.89
$IMU,2561.577,-2.807,0.732,-0.061,0.02099,0.02929,1.01660,28.89
$IMU,2561.579,-2.807,0.183,-0.122,0.02490,0.02587,1.01416,28.89
$MAG,2561.581,-0.342,-0.273,-0.897,28.1
$IMU,2561.582,-2.807,-0.366,-0.183,0.01953,0.02294,1.01611,28.89
$IMU,2561.584,-2.685,-0.305,-0.122,0.02099,0.02490,1.00976,28.89
$IMU,2561.586,-2.319,-0.244,-0.122,0.01806,0.02246,1.01220,28.89
$IMU,2561.589,-2.014,0.061,0.000,0.01513,0.02636,1.01074,28.90
$MAG,2561.591,-0.343,-0.277,-0.907,28.1
$IMU,2561.591,-1.953,0.366,0.122,0.00878,0.02294,1.01318,28.90
$IMU,2561.593,-1.953,0.549,0.122,0.00488,0.02685,1.01416,28.90
$IMU,2561.596,-2.014,0.549,-0.061,0.00683,0.02539,1.01367,28.90
$IMU,2561.598,-1.953,0.366,-0.244,0.00488,0.02343,1.01123,28.90
$IMU,2561.600,-1.831,0.061,-0.183,0.00878,0.02392,1.00878,28.90
$MAG,2561.601,-0.333,-0.276,-0.901,28.1
$IMU,2561.603,-1.647,-0.671,-0.061,0.01123,0.02685,1.01171,28.90
$IMU,2561.605,-1.403,-1.037,0.122,0.00976,0.02587,1.00830,28.90
$IMU,2561.607,-1.159,-1.037,0.061,0.00927,0.02587,1.00585,28.88
$IMU,2561.610,-1.037,-0.854,0.061,0.01025,0.02734,1.00830,28.88
$MAG,2561.611,-0.340,-0.282,-0.901,27.8
$IMU,2561.612,-1.037,-0.915,0.000,0.01416,0.02685,1.01171,28.88
$IMU,2561.614,-1.098,-1.037,0.000,0.01513,0.02929,1.00927,28.88
$IMU,2561.617,-1.098,-1.037,-0.061,0.01464,0.03173,1.00927,28.88
$IMU,2561.619,-1.098,-0.854,-0.061,0.01562,0.03027,1.01025,28.88
$MAG,2561.621,-0.340,-0.274,-0.901,27.8
$IMU,2561.621,-1.220,-0.732,-0.061,0.01757,0.02734,1.01367,28.88
$IMU,2561.624,-1.464,-0.793,0.061,0.01904,0.03271,1.01171,28.88
$IMU,2561.626,-1.586,-0.732,0.122,0.02001,0.02783,1.01123,28.91
$IMU,2561.628,-1.586,-0.793,0.061,0.01708,0.02929,1.01123,28.91
$IMU,2561.631,-1.708,-0.610,-0.061,0.01464,0.02734,1.01220,28.91
$MAG,2561.632,-0.345,-0.283,-0.894,28.0
$IMU,2561.633,-1.586,-0.671,-0.244,0.01757,0.02832,1.00781,28.91
$IMU,2561.635,-1.342,-0.976,-0.183,0.01562,0.02734,1.00976,28.91
$IMU,2561.638,-1.220,-1.220,-0.061,0.01318,0.02636,1.00878,28.91
$IMU,2561.640,-1.220,-1.342,0.061,0.01025,0.02880,1.00830,28.91
$MAG,2561.642,-0.336,-0.279,-0.898,28.1
$IMU,2561.642,-1.159,-1.281,0.061,0.01367,0.02490,1.00439,28.91
$IMU,2561.645,-1.403,-1.342,0.183,0.00830,0.02685,1.00341,28.89
$IMU,2561.647,-1.220,-1.647,0.244,0.00830,0.02685,1.00585,28.89
$IMU,2561.650,-1.220,-1.770,0.305,0.00732,0.02636,1.00683,28.89
$MAG,2561.652,-0.334,-0.273,-0.900,28.0
$IMU,2561.652,-1.281,-1.647,0.122,0.00927,0.02685,1.00634,28.89
$IMU,2561.654,-1.220,-1.708,0.061,0.00927,0.02587,1.00634,28.89
$IMU,2561.657,-1.281,-1.586,0.000,0.01416,0.02441,1.00830,28.89
$BARO,2561.659,86434.35,29.06
$IMU,2561.659,-1.037,-1.892,0.000,0.01464,0.02343,1.00537,28.89
$IMU,2561.661,-1.098,-1.586,0.000,0.01562,0.02343,1.00976,28.89
$MAG,2561.662,-0.339,-0.273,-0.897,28.1
$IMU,2561.664,-0.976,-1.586,0.061,0.01562,0.02441,1.00976,28.91
$IMU,2561.666,-0.671,-1.831,0.000,0.01904,0.02294,1.01025,28.91
$IMU,2561.668,-0.854,-1.708,0.000,0.02050,0.02539,1.00976,28.91
$IMU,2561.671,-0.610,-2.014,0.000,0.02539,0.02832,1.01220,28.91
$MAG,2561.672,-0.340,-0.271,-0.894,27.7
$IMU,2561.673,-0.244,-2.197,0.122,0.02636,0.03076,1.01611,28.91
$IMU,2561.675,-0.427,-1.708,0.244,0.02343,0.02978,1.01708,28.91
$IMU,2561.678,-0.671,-1.342,0.427,0.02148,0.03320,1.01904,28.91
$IMU,2561.680,-0.915,-1.403,0.549,0.02294,0.03417,1.01757,28.91
$MAG,2561.682,-0.336,-0.279,-0.898,28.1
$IMU,2561.682,-1.220,-1.037,0.488,0.02001,0.03076,1.01464,28.89
$IMU,2561.685,-1.708,-0.549,0.427,0.01464,0.03173,1.01318,28.89
$IMU,2561.687,-1.831,-0.610,0.244,0.01708,0.02880,1.01269,28.89
$IMU,2561.689,-1.953,-0.793,0.183,0.01171,0.02587,1.01464,28.89
$MAG,2561.692,-0.343,-0.274,-0.906,27.8
$IMU,2561.692,-1.953,-0.976,0.183,0.01708,0.02636,1.01416,28.89
$IMU,2561.694,-1.831,-1.403,0.427,0.02050,0.03076,1.01660,28.89
$IMU,2561.696,-1.831,-1.586,0.610,0.01953,0.02978,1.01367,28.89
$IMU,2561.699,-1.831,-1.159,0.488,0.02099,0.03027,1.01806,28.89
$IMU,2561.701,-1.831,-0.793,0.427,0.02148,0.02734,1.01611,28.91
$MAG,2561.702,-0.327,-0.276,-0.894,28.1
$IMU,2561.703,-2.075,-0.610,0.366,0.01855,0.02636,1.01464,28.91
$IMU,2561.706,-2.014,-0.793,0.305,0.01806,0.02343,1.01416,28.91
$IMU,2561.708,-2.075,-0.549,0.305,0.01660,0.02539,1.01025,28.91
$IMU,2561.711,-2.075,-0.610,0.305,0.01562,0.02246,1.00781,28.91
$MAG,2561.712,-0.348,-0.271,-0.894,28.1
$IMU,2561.713,-1.647,-1.220,0.305,0.02050,0.02392,1.00732,28.91
$IMU,2561.715,-1.464,-0.976,0.305,0.01953,0.02343,1.00683,28.91
$IMU,2561.718,-1.464,-0.793,0.244,0.02050,0.02539,1.00781,28.91
$IMU,2561.720,-1.403,-0.671,0.183,0.02050,0.02343,1.01220,28.88
$VBAT,2561.720,4.135
$MAG,2561.722,-0.339,-0.280,-0.903,28.0
$IMU,2561.722,-1.281,-0.732,0.122,0.01855,0.02197,1.01318,28.88
$IMU,2561.725,-1.159,-0.427,0.244,0.02001,0.02685,1.00976,28.88
$IMU,2561.727,-1.037,-0.427,0.122,0.01806,0.02392,1.01171,28.88
$IMU,2561.729,-1.037,-0.549,0.122,0.01660,0.02490,1.01074,28.88
$IMU,2561.732,-1.098,-0.549,0.244,0.01806,0.02392,1.01171,28.88
$MAG,2561.733,-0.334,-0.270,-0.903,28.0
$IMU,2561.734,-1.159,-0.366,0.244,0.01904,0.02490,1.01025,28.88
$IMU,2561.736,-0.976,-0.488,0.061,0.01708,0.02636,1.01025,28.88
$IMU,2561.739,-0.793,-0.549,0.061,0.01904,0.02294,1.01025,28.92
$IMU,2561.741,-0.915,-0.183,0.000,0.01611,0.02539,1.00585,28.92
$MAG,2561.743,-0.346,-0.268,-0.894,27.8
$IMU,2561.743,-0.854,-0.305,0.000,0.01904,0.02294,1.00781,28.92
$IMU,2561.746,-0.854,-0.305,0.000,0.02050,0.02685,1.00976,28.92
$IMU,2561.748,-0.793,-0.366,0.061,0.01904,0.02490,1.00878,28.92
$IMU,2561.750,-0.915,-0.183,0.000,0.01806,0.02636,1.00634,28.92
$MAG,2561.753,-0.339,-0.277,-0.892,27.8
$IMU,2561.753,-1.037,0.122,0.000,0.01953,0.02392,1.00878,28.92
$IMU,2561.755,-1.098,0.305,-0.061,0.02001,0.02246,1.01025,28.92
$IMU,2561.757,-0.915,0.061,0.000,0.01611,0.02539,1.00830,28.86
$IMU,2561.760,-0.610,-0.244,-0.061,0.01464,0.02490,1.01025,28.86
$BARO,2561.761,86427.58,29.06
$IMU,2561.762,-0.488,-0.183,-0.061,0.01416,0.02734,1.01123,28.86
$MAG,2561.763,-0.342,-0.271,-0.903,28.0
$IMU,2561.764,-0.610,0.000,0.000,0.01708,0.02783,1.01123,28.86
$IMU,2561.767,-0.549,-0.061,-0.061,0.01660,0.02587,1.01367,28.86
$IMU,2561.769,-0.427,-0.305,-0.061,0.01562,0.02783,1.01220,28.86
$IMU,2561.772,-0.488,-0.366,-0.061,0.01660,0.02636,1.01416,28.86
$MAG,2561.773,-0.331,-0.276,-0.907,27.7
$IMU,2561.774,-0.549,-0.244,-0.061,0.01757,0.02148,1.01269,28.86
$IMU,2561.776,-0.610,0.061,-0.061,0.01611,0.02490,1.01220,28.90
$IMU,2561.779,-0.488,-0.061,-0.061,0.01611,0.02783,1.01171,28.90
$IMU,2561.781,-0.366,-0.122,-0.061,0.01562,0.02294,1.01660,28.90
$MAG,2561.783,-0.340,-0.276,-0.894,28.1
$IMU,2561.783,-0.549,0.000,-0.122,0.01708,0.02539,1.01562,28.90
$IMU,2561.786,-0.610,-0.061,-0.122,0.01660,0.02490,1.01464,28.90
$IMU,2561.788,-0.671,-0.061,-0.183,0.01611,0.02734,1.01318,28.90
$IMU,2561.790,-0.793,0.183,-0.122,0.01757,0.02783,1.01367,28.90
$MAG,2561.793,-0.339,-0.279,-0.907,28.0
$IMU,2561.793,-0.671,-0.122,-0.061,0.01904,0.02636,1.01660,28.90
$IMU,2561.795,-0.610,-0.305,-0.061,0.01660,0.02294,1.01513,28.90
$IMU,2561.797,-0.488,-0.366,-0.122,0.01367,0.02490,1.01562,28.90
$IMU,2561.800,-0.610,-0.061,-0.122,0.01855,0.02636,1.01367,28.90
$IMU,2561.802,-0.549,-0.183,-0.122,0.02001,0.02490,1.01562,28.90
$MAG,2561.803,-0.342,-0.276,-0.900,28.1
$IMU,2561.804,-0.671,-0.122,-0.061,0.01904,0.02539,1.01269,28.90
$IMU,2561.807,-0.610,-0.061,-0.122,0.02050,0.02490,1.01269,28.90
$IMU,2561.809,-0.671,0.000,-0.061,0.01660,0.02392,1.01416,28.90
$IMU,2561.811,-0.671,-0.061,-0.183,0.01660,0.02490,1.01416,28.90
$MAG,2561.813,-0.345,-0.265,-0.901,28.1
$IMU,2561.814,-0.610,-0.061,-0.122,0.02001,0.02734,1.01269,28.89
$IMU,2561.816,-0.549,0.000,-0.122,0.01855,0.02490,1.01171,28.89
$IMU,2561.818,-0.549,0.000,-0.122,0.01855,0.02539,1.01513,28.89
$IMU,2561.821,-0.549,0.061,-0.061,0.01611,0.02880,1.01269,28.89
$MAG,2561.823,-0.337,-0.273,-0.897,28.0
$IMU,2561.823,-0.610,0.122,-0.061,0.01611,0.02490,1.01513,28.89
$IMU,2561.825,-0.549,-0.061,0.000,0.01757,0.02490,1.01123,28.89
$IMU,2561.828,-0.549,-0.061,-0.122,0.02050,0.02441,1.01464,28.89
$IMU,2561.830,-0.610,0.061,-0.122,0.01953,0.02587,1.01171,28.89
$MAG,2561.833,-0.339,-0.277,-0.903,28.0
$IMU,2561.833,-0.671,0.244,-0.122,0.01855,0.02392,1.01171,28.87
$IMU,2561.835,-0.549,0.122,0.000,0.01953,0.02783,1.01464,28.87
$IMU,2561.837,-0.549,0.061,0.000,0.01904,0.02343,1.01318,28.87
$IMU,2561.840,-0.427,-0.061,-0.061,0.01806,0.02539,1.01074,28.87
$IMU,2561.842,-0.488,-0.122,-0.122,0.01660,0.02343,1.01074,28.87
$MAG,2561.844,-0.339,-0.277,-0.900,28.1
$IMU,2561.844,-0.549,0.000,-0.122,0.01708,0.02685,1.01123,28.87
$IMU,2561.847,-0.488,-0.122,-0.061,0.01708,0.02392,1.01367,28.87
$IMU,2561.849,-0.488,-0.122,-0.122,0.01953,0.02343,1.01269,28.87
$IMU,2561.851,-0.427,-0.244,-0.122,0.01708,0.02392,1.01367,28.94
$MAG,2561.854,-0.345,-0.276,-0.900,27.8
$IMU,2561.854,-0.366,-0.305,-0.122,0.01953,0.02636,1.01269,28.94
$IMU,2561.856,-0.549,0.000,-0.061,0.01757,0.02539,1.01220,28.94
$IMU,2561.858,-0.549,-0.183,-0.183,0.02001,0.02294,1.01318,28.94
$IMU,2561.861,-0.549,0.061,-0.061,0.01562,0.02539,1.01757,28.94
$BARO,2561.862,86423.87,29.06
$IMU,2561.863,-0.366,-0.183,-0.061,0.02050,0.02636,1.01611,28.94
$MAG,2561.864,-0.345,-0.270,-0.909,28.1
$IMU,2561.865,-0.427,0.061,-0.061,0.01562,0.02539,1.01513,28.94
$IMU,2561.868,-0.305,-0.122,-0.061,0.01464,0.02685,1.01660,28.94
$IMU,2561.870,-0.183,-0.244,-0.122,0.01611,0.02392,1.01318,28.93
$IMU,2561.872,-0.366,0.061,-0.183,0.02099,0.02587,1.01562,28.93
$MAG,2561.874,-0.342,-0.277,-0.900,28.1
$IMU,2561.875,-0.183,-0.427,-0.183,0.01953,0.02441,1.01611,28.93
$IMU,2561.877,-0.061,-0.122,-0.305,0.01855,0.02294,1.01660,28.93
$IMU,2561.879,0.122,-0.183,-0.244,0.01855,0.02587,1.01416,28.93
$IMU,2561.882,-0.122,0.244,-0.122,0.01660,0.02441,1.01660,28.93
$MAG,2561.884,-0.340,-0.265,-0.903,28.1
$IMU,2561.884,-0.183,0.244,-0.061,0.01611,0.02880,1.01318,28.93
$IMU,2561.886,-0.183,-0.061,0.000,0.01464,0.02685,1.01269,28.93
$IMU,2561.889,-0.244,-0.488,-0.061,0.01708,0.02978,1.01660,28.89
$IMU,2561.891,-0.305,-0.366,0.000,0.01660,0.02832,1.01562,28.89
$MAG,2561.894,-0.343,-0.274,-0.909,28.1
$IMU,2561.894,-0.427,-0.122,-0.122,0.01464,0.02734,1.01611,28.89
$IMU,2561.896,-0.671,0.183,-0.244,0.02001,0.02392,1.01562,28.89
$IMU,2561.898,-0.732,0.244,-0.183,0.01806,0.02294,1.01074,28.89
$IMU,2561.901,-0.427,0.061,-0.061,0.01904,0.02587,1.01318,28.89
$IMU,2561.903,-0.488,0.000,-0.122,0.01513,0.02587,1.01269,28.89
$MAG,2561.904,-0.337,-0.277,-0.900,28.0
$IMU,2561.905,-0.427,-0.366,-0.122,0.01757,0.02197,1.01367,28.89
$IMU,2561.908,-0.488,-0.061,-0.183,0.01171,0.02392,1.01269,28.94
$IMU,2561.910,-0.427,-0.061,-0.244,0.01660,0.02490,1.01611,28.94
$IMU,2561.912,-0.427,0.000,-0.122,0.01757,0.02636,1.01708,28.94
$MAG,2561.914,-0.334,-0.273,-0.895,28.1
$IMU,2561.915,-0.244,-0.305,-0.061,0.02197,0.02685,1.01513,28.94
$IMU,2561.917,-0.366,0.122,-0.122,0.01806,0.02441,1.01171,28.94
$IMU,2561.919,-0.366,0.000,-0.122,0.01953,0.02246,1.01318,28.94
$IMU,2561.922,-0.427,0.000,-0.183,0.01904,0.02050,1.01464,28.94
$MAG,2561.924,-0.334,-0.268,-0.909,28.1
$IMU,2561.924,-0.488,0.061,-0.122,0.01806,0.02246,1.01562,28.94
$IMU,2561.926,-0.244,-0.244,-0.122,0.02050,0.02343,1.01464,28.87
$IMU,2561.929,-0.305,0.000,-0.061,0.01757,0.02685,1.01464,28.87
$IMU,2561.931,-0.366,0.183,-0.122,0.02197,0.02587,1.01416,28.87
$IMU,2561.933,-0.366,0.244,-0.122,0.01806,0.02441,1.01318,28.87
$MAG,2561.934,-0.339,-0.274,-0.904,28.1
$IMU,2561.936,-0.305,0.122,-0.183,0.01708,0.02587,1.01220,28.87
$IMU,2561.938,-0.305,0.000,-0.122,0.01611,0.02587,1.01123,28.87
$IMU,2561.940,-0.183,-0.244,-0.183,0.01562,0.02880,1.01123,28.87
$IMU,2561.943,-0.366,-0.061,-0.183,0.01464,0.02490,1.01220,28.87
$MAG,2561.945,-0.334,-0.265,-0.898,27.8
$IMU,2561.945,-0.427,-0.061,-0.183,0.01757,0.02392,1.01171,28.87
$IMU,2561.947,-0.305,-0.366,-0.122,0.01513,0.02246,1.01269,28.87
$IMU,2561.950,-0.244,-0.427,-0.183,0.01611,0.02197,1.01464,28.87
$IMU,2561.952,-0.366,-0.183,-0.183,0.01611,0.02441,1.01269,28.87
$MAG,2561.955,-0.337,-0.276,-0.903,27.8
$IMU,2561.955,-0.427,-0.183,-0.122,0.01855,0.02539,1.01220,28.87
$IMU,2561.957,-0.549,0.122,-0.183,0.01757,0.02490,1.01269,28.87
$IMU,2561.959,-0.549,0.000,-0.122,0.01757,0.02539,1.01611,28.87
$IMU,2561.962,-0.366,-0.061,-0.122,0.02001,0.02294,1.01464,28.87
$BARO,2561.964,86425.43,29.07
$IMU,2561.964,-0.488,0.122,-0.183,0.01855,0.02441,1.01513,28.90
$MAG,2561.965,-0.336,-0.276,-0.898,27.7
$IMU,2561.966,-0.488,0.122,-0.183,0.01806,0.02539,1.01513,28.90
$IMU,2561.969,-0.366,-0.183,-0.183,0.02001,0.02587,1.01708,28.90
$IMU,2561.971,-0.488,0.122,-0.122,0.01757,0.02587,1.01416,28.90
$IMU,2561.973,-0.549,0.366,-0.122,0.02148,0.02539,1.01416,28.90
$MAG,2561.975,-0.351,-0.277,-0.906,28.1
$IMU,2561.976,-0.244,-0.122,-0.122,0.01904,0.02587,1.01416,28.90
$IMU,2561.978,-0.305,-0.122,-0.122,0.01562,0.02441,1.01464,28.90
$IMU,2561.980,-0.244,-0.122,-0.122,0.01904,0.02490,1.01367,28.90
$IMU,2561.983,-0.305,-0.061,-0.183,0.01708,0.02343,1.01318,28.95
$MAG,2561.985,-0.334,-0.267,-0.901,28.1
$IMU,2561.985,-0.183,0.000,-0.061,0.01708,0.02978,1.01123,28.95
$IMU,2561.987,-0.122,-0.122,-0.183,0.02001,0.02441,1.01416,28.95
$IMU,2561.990,-0.244,-0.061,-0.122,0.01757,0.02636,1.01318,28.95
$IMU,2561.992,-0.244,-0.061,-0.122,0.01562,0.02441,1.01367,28.95
$IMU,2561.994,-0.366,0.061,-0.122,0.01708,0.02880,1.01464,28.95
$MAG,2561.995,-0.337,-0.280,-0.897,28.1
$IMU,2561.997,-0.366,-0.183,-0.122,0.01904,0.02343,1.01367,28.95
$IMU,2561.999,-0.427,-0.061,-0.122,0.01806,0.02685,1.01513,28.95
$IMU,2562.001,-0.488,-0.122,-0.122,0.01660,0.02441,1.01513,28.90
$IMU,2562.004,-0.427,-0.183,-0.122,0.01464,0.02539,1.01611,28.90
$MAG,2562.005,-0.339,-0.273,-0.904,28.1
$IMU,2562.006,-0.427,0.000,-0.183,0.01660,0.02734,1.01416,28.90
$IMU,2562.008,-0.488,0.061,-0.122,0.01806,0.02490,1.01074,28.90
$HUM,2562.010,37.3,29.5
$IMU,2562.011,-0.427,-0.061,-0.183,0.01708,0.02246,1.01416,28.90
$IMU,2562.013,-0.427,-0.244,-0.183,0.01904,0.02294,1.01416,28.90
$MAG,2562.015,-0.342,-0.274,-0.906,28.1
$IMU,2562.016,-0.366,-0.122,-0.183,0.01806,0.02392,1.01416,28.90
$IMU,2562.018,-0.427,-0.061,-0.122,0.01806,0.02392,1.01269,28.90
$IMU,2562.020,-0.366,-0.061,-0.183,0.02099,0.02148,1.01269,28.89
$IMU,2562.023,-0.244,-0.122,-0.183,0.01855,0.02246,1.01464,28.89
$MAG,2562.025,-0.336,-0.276,-0.904,28.1
$IMU,2562.025,-0.305,-0.183,-0.122,0.01904,0.02441,1.01416,28.89
$IMU,2562.027,-0.183,-0.305,-0.183,0.01708,0.02587,1.01269,28.89
$IMU,2562.030,-0.244,-0.122,-0.122,0.02099,0.02636,1.01416,28.89
$IMU,2562.032,-0.183,-0.122,-0.122,0.01806,0.02490,1.01562,28.89
$IMU,2562.034,-0.305,0.000,-0.122,0.01513,0.02392,1.01416,28.89
$MAG,2562.035,-0.351,-0.274,-0.894,28.0
$IMU,2562.037,-0.122,-0.183,-0.122,0.01953,0.02929,1.01318,28.89
$IMU,2562.039,-0.244,-0.061,-0.122,0.01757,0.02929,1.01123,28.94
$IMU,2562.041,-0.366,0.061,-0.122,0.01855,0.03125,1.01269,28.94
$IMU,2562.044,-0.305,0.000,-0.122,0.02050,0.02685,1.01171,28.94
$MAG,2562.046,-0.345,-0.274,-0.907,28.1
$IMU,2562.046,-0.244,-0.061,-0.183,0.01855,0.02636,1.01513,28.94
$IMU,2562.048,-0.366,0.000,-0.122,0.01757,0.02734,1.01318,28.94
$IMU,2562.051,-0.366,0.000,-0.122,0.01611,0.02148,1.01513,28.94
$IMU,2562.053,-0.366,-0.061,-0.183,0.01855,0.02099,1.01513,28.94
$IMU,2562.055,-0.366,-0.061,-0.183,0.01660,0.02148,1.01611,28.94
$MAG,2562.056,-0.340,-0.267,-0.903,28.0
$IMU,2562.058,-0.427,0.000,-0.183,0.01562,0.02539,1.01513,28.90
$IMU,2562.060,-0.366,-0.183,-0.183,0.01660,0.02734,1.01513,28.90
$IMU,2562.062,-0.427,-0.244,-0.183,0.01611,0.02587,1.01269,28.90
$BARO,2562.065,86433.96,29.06
$IMU,2562.065,-0.305,-0.183,-0.183,0.01562,0.02197,1.01318,28.90
$IMU,2562.067,-0.427,-0.061,-0.244,0.01660,0.02539,1.01513,28.90
$MAG,2562.066,-0.327,-0.276,-0.903,28.0
$IMU,2562.069,-0.305,-0.122,-0.183,0.01464,0.02343,1.01611,28.90
$IMU,2562.072,-0.366,-0.061,-0.183,0.01757,0.02587,1.01806,28.90
$IMU,2562.074,-0.244,-0.183,-0.183,0.01708,0.02539,1.01757,28.90
$MAG,2562.076,-0.342,-0.273,-0.897,27.8
$IMU,2562.076,-0.244,-0.122,-0.122,0.01611,0.02392,1.01513,28.89
$IMU,2562.079,-0.183,-0.183,-0.122,0.01611,0.02490,1.01416,28.89
$IMU,2562.081,-0.244,-0.061,-0.122,0.01904,0.02294,1.01708,28.89
$IMU,2562.084,-0.305,0.122,-0.183,0.01708,0.02490,1.01757,28.89
$MAG,2562.086,-0.345,-0.268,-0.895,28.1
$IMU,2562.086,-0.244,-0.061,-0.183,0.01660,0.02441,1.01171,28.89
$IMU,2562.088,-0.244,-0.061,-0.183,0.02001,0.02294,1.01367,28.89
$IMU,2562.091,-0.305,0.000,-0.122,0.01855,0.02685,1.01367,28.89
$IMU,2562.093,-0.305,-0.061,-0.061,0.02001,0.02587,1.01367,28.89
$IMU,2562.095,-0.305,-0.061,-0.122,0.01513,0.02539,1.01318,28.91
$MAG,2562.096,-0.342,-0.274,-0.901,28.1
$IMU,2562.098,-0.305,0.000,-0.122,0.01660,0.02539,1.01416,28.91
$IMU,2562.100,-0.366,-0.122,-0.122,0.01855,0.02783,1.01562,28.91
$IMU,2562.102,-0.305,-0.122,-0.183,0.01708,0.02587,1.01318,28.91
$IMU,2562.105,-0.366,-0.183,-0.122,0.02001,0.02246,1.01367,28.91
$MAG,2562.106,-0.349,-0.274,-0.895,28.1
$IMU,2562.107,-0.488,0.000,-0.183,0.02001,0.02587,1.01562,28.91
$IMU,2562.109,-0.488,0.000,-0.183,0.01562,0.02490,1.01562,28.91
$IMU,2562.112,-0.366,-0.183,-0.183,0.01708,0.02343,1.01367,28.91
$IMU,2562.114,-0.305,-0.183,-0.183,0.01611,0.02539,1.01367,28.89
$MAG,2562.116,-0.345,-0.277,-0.897,28.1
$IMU,2562.116,-0.427,-0.061,-0.183,0.01416,0.02294,1.01367,28.89
$IMU,2562.119,-0.427,0.000,-0.122,0.01562,0.02099,1.01660,28.89
$IMU,2562.121,-0.366,-0.061,-0.122,0.01708,0.02001,1.01660,28.89
$IMU,2562.123,-0.305,-0.061,-0.183,0.01513,0.02539,1.01513,28.89
$MAG,2562.126,-0.337,-0.280,-0.901,28.1
$IMU,2562.126,-0.183,-0.183,-0.183,0.01562,0.02636,1.01611,28.89
$IMU,2562.128,-0.183,-0.305,-0.061,0.01953,0.02441,1.01464,28.89
$IMU,2562.130,-0.183,-0.183,-0.122,0.01708,0.02734,1.01416,28.89
$IMU,2562.133,-0.305,-0.061,-0.122,0.02148,0.02539,1.01611,28.92
$IMU,2562.135,-0.305,0.000,-0.122,0.01855,0.02441,1.01611,28.92
$MAG,2562.136,-0.339,-0.273,-0.903,28.1
$IMU,2562.137,-0.244,-0.183,-0.183,0.01904,0.02587,1.01416,28.92
$IMU,2562.140,-0.244,-0.061,-0.122,0.01953,0.02441,1.01464,28.92
$IMU,2562.142,-0.122,-0.122,-0.122,0.01953,0.02685,1.01611,28.92
$IMU,2562.145,-0.183,-0.061,-0.122,0.01757,0.02636,1.01513,28.92
$MAG,2562.147,-0.337,-0.274,-0.900,28.1
$IMU,2562.147,-0.244,-0.061,-0.122,0.01904,0.02539,1.01513,28.92
$IMU,2562.149,-0.305,0.000,-0.122,0.01757,0.02392,1.01513,28.92
$IMU,2562.152,-0.305,-0.122,-0.061,0.01660,0.02636,1.01318,28.94
$IMU,2562.154,-0.366,-0.122,-0.183,0.01757,0.02587,1.01269,28.94
$IMU,2562.156,-0.366,-0.061,-0.122,0.01904,0.02880,1.01269,28.94
$MAG,2562.157,-0.340,-0.274,-0.903,28.0
$IMU,2562.159,-0.427,0.061,-0.122,0.01562,0.02783,1.01513,28.94
$IMU,2562.161,-0.366,-0.061,-0.122,0.01464,0.02539,1.01562,28.94
$IMU,2562.163,-0.366,-0.183,-0.183,0.01513,0.02148,1.01464,28.94
$IMU,2562.166,-0.305,-0.183,-0.122,0.01513,0.02392,1.00976,28.94
$MAG,2562.167,-0.339,-0.276,-0.907,28.1
$IMU,2562.168,-0.366,-0.061,-0.183,0.01855,0.02441,1.01318,28.94
$BARO,2562.167,86424.56,29.06
$IMU,2562.170,-0.366,-0.122,-0.061,0.01513,0.02734,1.01123,28.94
$IMU,2562.173,-0.366,0.000,-0.183,0.01562,0.02783,1.01464,28.94
$IMU,2562.175,-0.244,-0.122,-0.183,0.01953,0.02490,1.01171,28.94
$MAG,2562.177,-0.340,-0.276,-0.903,28.1
$IMU,2562.177,-0.305,-0.061,-0.183,0.01660,0.02197,1.01562,28.94
$IMU,2562.180,-0.244,-0.183,-0.183,0.01513,0.02343,1.01464,28.94
$IMU,2562.182,-0.244,-0.244,-0.122,0.01904,0.02539,1.01464,28.94
$IMU,2562.184,-0.305,-0.061,-0.183,0.02001,0.02685,1.01660,28.94
$MAG,2562.187,-0.330,-0.267,-0.904,28.1
$IMU,2562.187,-0.183,-0.183,-0.122,0.02001,0.02734,1.01611,28.94
$IMU,2562.189,-0.244,-0.122,-0.122,0.01708,0.02490,1.01269,28.89
$IMU,2562.191,-0.244,0.000,-0.122,0.01708,0.02587,1.01464,28.89
$IMU,2562.194,-0.244,-0.122,-0.122,0.01855,0.02197,1.01269,28.89
$IMU,2562.196,-0.244,-0.122,-0.061,0.01855,0.02441,1.01318,28.89
$MAG,2562.197,-0.337,-0.268,-0.895,28.1
$IMU,2562.198,-0.244,0.000,-0.061,0.01660,0.02441,1.01318,28.89
$IMU,2562.201,-0.366,0.000,-0.061,0.01904,0.02441,1.01318,28.89
$IMU,2562.203,-0.244,-0.122,-0.122,0.01806,0.02294,1.01416,28.89
$IMU,2562.206,-0.244,-0.061,-0.183,0.01513,0.02294,1.00976,28.89
$MAG,2562.207,-0.334,-0.277,-0.897,28.1
$IMU,2562.208,-0.305,-0.061,-0.244,0.01416,0.02441,1.01220,28.95
$IMU,2562.210,-0.366,0.000,-0.183,0.01660,0.02441,1.01611,28.95
$IMU,2562.213,-0.366,-0.122,-0.122,0.01611,0.02539,1.01562,28.95
$IMU,2562.215,-0.366,-0.122,-0.183,0.01660,0.02392,1.01367,28.95
$MAG,2562.217,-0.333,-0.277,-0.900,28.1
$IMU,2562.217,-0.305,-0.061,-0.122,0.01611,0.02441,1.01464,28.95
$IMU,2562.220,-0.305,-0.061,-0.183,0.01855,0.02294,1.01367,28.95
$IMU,2562.222,-0.366,-0.061,-0.183,0.01757,0.02392,1.01513,28.95
$IMU,2562.224,-0.305,-0.061,-0.183,0.01708,0.02294,1.01611,28.95
$MAG,2562.227,-0.340,-0.271,-0.904,28.0
$IMU,2562.227,-0.244,-0.244,-0.244,0.01464,0.02197,1.01464,28.94
$IMU,2562.229,-0.061,-0.366,-0.244,0.01757,0.02148,1.01318,28.94
$IMU,2562.231,-0.122,-0.183,-0.122,0.01660,0.02441,1.01660,28.94
$IMU,2562.234,-0.305,-0.061,-0.061,0.01708,0.02587,1.01513,28.94
$IMU,2562.236,-0.427,0.061,-0.122,0.01611,0.02978,1.01611,28.94
$MAG,2562.237,-0.342,-0.271,-0.900,28.0
$IMU,2562.238,-0.305,-0.061,-0.122,0.02148,0.02441,1.01660,28.94
$IMU,2562.241,-0.305,-0.122,-0.183,0.01855,0.02880,1.01513,28.94
$IMU,2562.243,-0.183,-0.183,-0.183,0.01806,0.02392,1.01123,28.94
$IMU,2562.245,-0.183,-0.122,-0.122,0.01855,0.02685,1.01464,28.93
$MAG,2562.247,-0.334,-0.270,-0.897,28.2
$IMU,2562.248,-0.305,0.061,-0.122,0.01660,0.02587,1.01318,28.93
$IMU,2562.250,-0.244,0.061,-0.122,0.01757,0.02539,1.01416,28.93
$IMU,2562.252,-0.305,-0.061,-0.061,0.01757,0.02636,1.01611,28.93
$IMU,2562.255,-0.305,-0.122,-0.122,0.01513,0.02587,1.01367,28.93
$IMU,2562.257,-0.366,-0.122,-0.122,0.01806,0.02636,1.01562,28.93
$MAG,2562.258,-0.339,-0.279,-0.904,28.1
$IMU,2562.259,-0.366,-0.122,-0.183,0.01806,0.02587,1.01220,28.93
$IMU,2562.262,-0.366,-0.061,-0.183,0.01611,0.02587,1.01269,28.93
$IMU,2562.264,-0.427,0.061,-0.122,0.01806,0.02441,1.01025,28.89
$IMU,2562.267,-0.427,0.000,-0.122,0.01855,0.02246,1.01318,28.89
$BARO,2562.268,86428.11,29.06
$MAG,2562.268,-0.330,-0.273,-0.898,27.8
$IMU,2562.269,-0.366,-0.061,-0.183,0.02099,0.02197,1.01171,28.89
$IMU,2562.271,-0.305,-0.061,-0.183,0.01855,0.02001,1.01464,28.89
$IMU,2562.274,-0.366,-0.061,-0.122,0.01953,0.02490,1.01416,28.89
$IMU,2562.276,-0.305,-0.183,-0.183,0.01611,0.02539,1.01464,28.89
$MAG,2562.278,-0.339,-0.267,-0.901,28.0
$IMU,2562.278,-0.244,-0.183,-0.122,0.01611,0.02636,1.01171,28.89
$IMU,2562.281,-0.244,-0.305,-0.183,0.01513,0.02294,1.01269,28.89
$IMU,2562.283,-0.305,-0.183,-0.122,0.01464,0.02294,1.01562,28.92
$IMU,2562.285,-0.305,-0.122,-0.183,0.01660,0.02636,1.01611,28.92
$MAG,2562.288,-0.342,-0.270,-0.903,28.1
$IMU,2562.288,-0.183,-0.305,-0.122,0.01855,0.02197,1.01416,28.92
$IMU,2562.290,-0.244,-0.061,-0.061,0.01953,0.02343,1.01611,28.92
$IMU,2562.292,-0.183,-0.061,-0.122,0.01806,0.02587,1.01513,28.92
$IMU,2562.295,-0.183,-0.244,-0.183,0.01611,0.02685,1.01611,28.92
$IMU,2562.297,-0.183,-0.122,-0.122,0.01757,0.02636,1.01464,28.92
$MAG,2562.298,-0.336,-0.270,-0.904,28.1
$IMU,2562.299,-0.244,0.000,-0.122,0.01953,0.02490,1.01367,28.92
$IMU,2562.302,-0.244,-0.061,-0.122,0.01708,0.02783,1.01318,28.93
$IMU,2562.304,-0.183,0.000,-0.122,0.01513,0.02832,1.01660,28.93
$IMU,2562.306,-0.305,0.061,-0.122,0.01806,0.02685,1.01318,28.93
$MAG,2562.308,-0.337,-0.274,-0.910,28.1
$IMU,2562.309,-0.366,0.000,-0.183,0.01416,0.03027,1.01367,28.93
$IMU,2562.311,-0.305,0.061,-0.122,0.01708,0.02783,1.01513,28.93
$IMU,2562.313,-0.244,0.061,-0.122,0.01855,0.02783,1.01367,28.93
$IMU,2562.316,-0.305,-0.061,-0.183,0.01708,0.02441,1.01367,28.93
$MAG,2562.318,-0.348,-0.274,-0.901,28.1
$IMU,2562.318,-0.366,0.000,-0.122,0.01562,0.02246,1.01416,28.93
$IMU,2562.320,-0.366,0.061,-0.122,0.01660,0.02539,1.01269,28.91
$IMU,2562.323,-0.366,-0.061,-0.244,0.01464,0.02587,1.01513,28.91
$IMU,2562.325,-0.427,-0.122,-0.183,0.01757,0.02636,1.01367,28.91
$MAG,2562.328,-0.334,-0.270,-0.895,28.1
$IMU,2562.328,-0.366,-0.061,-0.183,0.01513,0.02587,1.01513,28.91
$IMU,2562.330,-0.366,-0.122,-0.183,0.01318,0.02343,1.01513,28.91
$IMU,2562.332,-0.305,-0.122,-0.183,0.01464,0.02343,1.01513,28.91
$IMU,2562.335,-0.244,-0.244,-0.183,0.01708,0.02197,1.01611,28.91
$IMU,2562.337,-0.305,-0.061,-0.183,0.01904,0.02050,1.01318,28.91
$MAG,2562.338,-0.333,-0.276,-0.904,28.1
$IMU,2562.339,-0.305,-0.122,-0.183,0.01757,0.02392,1.01367,28.93
$IMU,2562.342,-0.183,-0.183,-0.122,0.01953,0.02246,1.01416,28.93
$IMU,2562.344,-0.122,-0.122,-0.183,0.01904,0.02294,1.01513,28.93
$IMU,2562.346,-0.183,-0.061,-0.122,0.01904,0.02197,1.01562,28.93
$MAG,2562.348,-0.339,-0.273,-0.907,28.1
$IMU,2562.349,-0.305,0.061,-0.122,0.01513,0.02636,1.01757,28.93
$IMU,2562.351,-0.366,0.122,-0.061,0.01562,0.02587,1.01513,28.93
$IMU,2562.353,-0.244,-0.061,-0.183,0.01660,0.02539,1.01269,28.93
$IMU,2562.356,-0.183,0.000,-0.183,0.01855,0.02734,1.01562,28.93
$IMU,2562.358,-0.244,-0.061,-0.122,0.01708,0.02490,1.01513,28.92
$MAG,2562.359,-0.331,-0.276,-0.901,28.1
$IMU,2562.360,-0.305,-0.122,-0.061,0.01806,0.02734,1.01708,28.92
$IMU,2562.363,-0.305,-0.061,-0.183,0.01660,0.02539,1.01708,28.92
$IMU,2562.365,-0.305,0.061,-0.183,0.01855,0.02490,1.01513,28.92
$IMU,2562.367,-0.366,-0.183,-0.122,0.01562,0.02587,1.01416,28.92
$MAG,2562.369,-0.337,-0.270,-0.903,28.1
$BARO,2562.370,86418.63,29.06
$IMU,2562.370,-0.366,-0.122,-0.122,0.01806,0.02441,1.01513,28.92
$IMU,2562.372,-0.366,-0.122,-0.183,0.01562,0.02441,1.01416,28.92
$IMU,2562.374,-0.427,-0.061,-0.122,0.01757,0.02343,1.01660,28.92
$IMU,2562.377,-0.427,-0.061,-0.183,0.01318,0.02392,1.01416,28.95
$MAG,2562.379,-0.333,-0.274,-0.901,28.1
$IMU,2562.379,-0.427,-0.183,-0.122,0.01757,0.02490,1.01269,28.95
$IMU,2562.381,-0.427,-0.183,-0.183,0.01757,0.02392,1.01660,28.95
$IMU,2562.384,-0.366,-0.122,-0.122,0.01660,0.01953,1.01611,28.95
$IMU,2562.386,-0.366,-0.061,-0.183,0.01855,0.02490,1.01123,28.95
$MAG,2562.389,-0.337,-0.277,-0.906,27.8
$IMU,2562.389,-0.366,-0.061,-0.244,0.01855,0.02294,1.01171,28.95
$IMU,2562.391,-0.305,-0.061,-0.183,0.01660,0.02490,1.01416,28.95
$IMU,2562.393,-0.366,0.000,-0.183,0.01757,0.02441,1.01611,28.95
$IMU,2562.396,-0.305,0.061,-0.122,0.01513,0.02539,1.01757,28.93
$IMU,2562.398,-0.244,-0.061,-0.061,0.01855,0.02587,1.01464,28.93
$MAG,2562.399,-0.339,-0.270,-0.895,28.1
$IMU,2562.400,-0.305,-0.061,-0.122,0.02001,0.02392,1.01660,28.93
$IMU,2562.403,-0.366,0.061,-0.183,0.01757,0.02539,1.01708,28.93
$IMU,2562.405,-0.305,0.122,-0.122,0.01464,0.02490,1.01318,28.93
$IMU,2562.407,-0.183,-0.061,-0.183,0.01562,0.02734,1.01464,28.93
$MAG,2562.409,-0.345,-0.274,-0.907,28.1
$IMU,2562.410,-0.244,-0.061,-0.122,0.01513,0.02539,1.01416,28.93
$IMU,2562.412,-0.244,-0.061,-0.122,0.01367,0.02392,1.01416,28.93
$IMU,2562.414,-0.366,0.000,-0.122,0.01611,0.02343,1.01416,28.96
$IMU,2562.417,-0.427,0.000,-0.183,0.01562,0.02490,1.01269,28.96
$MAG,2562.419,-0.340,-0.268,-0.901,28.0
$IMU,2562.419,-0.427,-0.183,-0.122,0.01806,0.02441,1.01416,28.96
$IMU,2562.421,-0.427,-0.061,-0.183,0.01757,0.02343,1.01171,28.96
$IMU,2562.424,-0.366,-0.183,-0.183,0.01562,0.02246,1.01171,28.96
$IMU,2562.426,-0.366,-0.122,-0.122,0.01562,0.02539,1.01513,28.96
$IMU,2562.428,-0.488,0.061,-0.122,0.01708,0.02490,1.01220,28.96
$MAG,2562.429,-0.333,-0.270,-0.898,28.1
$IMU,2562.431,-0.427,-0.122,-0.183,0.01660,0.02490,1.01269,28.96
$IMU,2562.433,-0.366,-0.183,-0.183,0.01904,0.02246,1.01220,28.92
$IMU,2562.435,-0.427,0.000,-0.122,0.01660,0.02392,1.01318,28.92
$IMU,2562.438,-0.244,-0.305,-0.183,0.01757,0.02246,1.01562,28.92
$MAG,2562.439,-0.334,-0.273,-0.903,28.1
$IMU,2562.440,-0.244,-0.244,-0.183,0.01855,0.02148,1.01660,28.92
$IMU,2562.442,-0.244,-0.183,-0.122,0.01660,0.02294,1.01611,28.92
$IMU,2562.445,-0.244,-0.183,-0.061,0.01904,0.02099,1.01367,28.92
$IMU,2562.447,-0.183,-0.122,-0.122,0.01953,0.02197,1.01464,28.92
$MAG,2562.449,-0.333,-0.271,-0.903,28.2
$IMU,2562.450,-0.183,0.000,-0.122,0.01660,0.02392,1.01513,28.92
$IMU,2562.452,-0.305,0.061,-0.122,0.01611,0.02392,1.01269,28.92
$IMU,2562.454,-0.244,0.061,-0.122,0.01611,0.02294,1.01269,28.92
$IMU,2562.457,-0.244,0.061,-0.122,0.01269,0.02441,1.01318,28.92
$IMU,2562.459,-0.244,-0.061,-0.122,0.01464,0.02441,1.01416,28.92
$MAG,2562.460,-0.339,-0.276,-0.903,28.1
$IMU,2562.461,-0.305,0.000,-0.061,0.01708,0.02392,1.01220,28.92
$IMU,2562.464,-0.183,0.000,-0.122,0.01855,0.02148,1.01367,28.92
$IMU,2562.466,-0.305,-0.061,-0.183,0.02099,0.02587,1.01416,28.92
$IMU,2562.468,-0.305,-0.122,-0.183,0.01562,0.02392,1.01220,28.92
$MAG,2562.470,-0.339,-0.276,-0.903,28.1
$BARO,2562.471,86424.48,29.06
$IMU,2562.471,-0.305,-0.122,-0.122,0.01806,0.02099,1.01562,28.96
$IMU,2562.473,-0.244,-0.244,-0.122,0.01904,0.02832,1.01220,28.96
$IMU,2562.475,-0.366,-0.061,-0.122,0.01611,0.02490,1.01708,28.96
$IMU,2562.478,-0.427,-0.122,-0.122,0.01708,0.02343,1.01562,28.96
$MAG,2562.480,-0.330,-0.274,-0.907,28.1
$IMU,2562.480,-0.366,0.000,-0.122,0.02001,0.02392,1.01367,28.96
$IMU,2562.482,-0.305,-0.122,-0.122,0.01513,0.02441,1.01416,28.96
$IMU,2562.485,-0.366,-0.061,-0.122,0.01513,0.02294,1.01660,28.96
$IMU,2562.487,-0.366,-0.183,-0.122,0.01562,0.02441,1.01416,28.96
$IMU,2562.489,-0.244,-0.183,-0.122,0.01611,0.02246,1.01464,28.94
$MAG,2562.490,-0.336,-0.267,-0.897,28.1
$IMU,2562.492,-0.366,-0.061,-0.183,0.01855,0.02294,1.01513,28.94
$IMU,2562.494,-0.305,-0.061,-0.183,0.01708,0.01953,1.01318,28.94
$IMU,2562.496,-0.305,-0.061,-0.183,0.01611,0.02392,1.01562,28.94
$IMU,2562.499,-0.244,-0.061,-0.244,0.01953,0.02636,1.01660,28.94
$MAG,2562.500,-0.337,-0.280,-0.900,28.1
$IMU,2562.501,-0.244,-0.061,-0.183,0.01855,0.02246,1.01757,28.94
$IMU,2562.503,-0.183,-0.122,-0.122,0.01953,0.02099,1.01464,28.94
$IMU,2562.506,-0.183,0.000,-0.122,0.01757,0.02294,1.01464,28.94
$IMU,2562.508,-0.183,-0.122,-0.183,0.01708,0.02587,1.01171,28.91
$MAG,2562.510,-0.349,-0.273,-0.910,28.1
$IMU,2562.510,-0.183,-0.061,-0.122,0.01855,0.02539,1.01367,28.91
$IMU,2562.513,-0.183,-0.122,-0.183,0.02001,0.02636,1.01416,28.91
$IMU,2562.515,-0.244,0.000,-0.183,0.01416,0.02587,1.01806,28.91
$IMU,2562.518,-0.305,0.000,-0.122,0.01806,0.02343,1.01660,28.91
$MAG,2562.520,-0.337,-0.279,-0.891,28.1
$IMU,2562.520,-0.244,-0.122,-0.061,0.01806,0.02343,1.01562,28.91
$IMU,2562.522,-0.244,-0.122,-0.122,0.01660,0.02392,1.01318,28.91
$IMU,2562.525,-0.244,-0.183,-0.183,0.01513,0.02343,1.01367,28.91
$IMU,2562.527,-0.305,0.000,-0.183,0.01171,0.02441,1.01367,28.93
$IMU,2562.529,-0.366,0.000,-0.183,0.01464,0.02636,1.01611,28.93
$MAG,2562.530,-0.340,-0.273,-0.900,28.0
$IMU,2562.532,-0.366,-0.061,-0.183,0.01806,0.02294,1.01464,28.93
$IMU,2562.534,-0.305,-0.183,-0.183,0.01904,0.02197,1.01513,28.93
$IMU,2562.536,-0.305,-0.244,-0.122,0.01904,0.02392,1.01269,28.93
$IMU,2562.539,-0.305,-0.244,-0.122,0.01660,0.02099,1.01611,28.93
$MAG,2562.540,-0.340,-0.270,-0.901,28.1
$IMU,2562.541,-0.366,-0.061,-0.122,0.01611,0.02246,1.01855,28.93
$IMU,2562.543,-0.366,-0.061,-0.183,0.01806,0.02294,1.01660,28.93
$IMU,2562.546,-0.305,-0.061,-0.122,0.01513,0.02294,1.01416,28.93
$IMU,2562.548,-0.244,-0.244,-0.122,0.01367,0.02197,1.01513,28.93
$MAG,2562.550,-0.339,-0.285,-0.903,28.1
$IMU,2562.550,-0.244,-0.183,-0.244,0.01757,0.02294,1.01562,28.93
$IMU,2562.553,-0.244,-0.061,-0.183,0.01660,0.02197,1.01611,28.93
$IMU,2562.555,-0.305,0.061,-0.122,0.01806,0.02148,1.01464,28.93
$IMU,2562.557,-0.122,-0.061,-0.122,0.01953,0.02197,1.01464,28.93
$MAG,2562.560,-0.336,-0.279,-0.900,28.1
$IMU,2562.560,-0.183,0.000,-0.122,0.01904,0.02636,1.01513,28.93
$IMU,2562.562,-0.183,-0.061,-0.183,0.01757,0.02246,1.01513,28.93
$IMU,2562.564,-0.244,-0.061,-0.183,0.01757,0.02441,1.01464,28.93
$IMU,2562.567,-0.305,0.061,-0.122,0.01904,0.02490,1.01708,28.93
$IMU,2562.569,-0.305,0.061,-0.122,0.01904,0.02636,1.01318,28.93
$IMU,2562.571,-0.244,-0.061,-0.183,0.01660,0.02539,1.01513,28.93
$MAG,2562.571,-0.334,-0.271,-0.906,28.1
$BARO,2562.573,86430.06,29.07
$IMU,2562.574,-0.305,-0.122,-0.183,0.01611,0.02685,1.01513,28.93
$IMU,2562.576,-0.366,0.061,-0.061,0.01416,0.02636,1.01269,28.93
$IMU,2562.579,-0.305,0.061,-0.122,0.01416,0.02490,1.01074,28.93
$MAG,2562.581,-0.336,-0.271,-0.894,28.1
$IMU,2562.581,-0.366,-0.061,-0.122,0.01611,0.02490,1.01220,28.93
$IMU,2562.583,-0.427,-0.122,-0.183,0.01513,0.02734,1.01464,28.92
$IMU,2562.586,-0.366,-0.122,-0.183,0.01757,0.02587,1.01318,28.92
$IMU,2562.588,-0.366,-0.122,-0.183,0.01513,0.02294,1.01367,28.92
$IMU,2562.590,-0.305,-0.183,-0.183,0.01806,0.02197,1.01318,28.92
$MAG,2562.591,-0.340,-0.268,-0.897,28.1
$IMU,2562.593,-0.427,-0.061,-0.183,0.01367,0.02587,1.01220,28.92
$IMU,2562.595,-0.366,-0.061,-0.122,0.01611,0.02050,1.01220,28.92
$IMU,2562.597,-0.366,-0.061,-0.122,0.01611,0.02294,1.01318,28.92
$IMU,2562.600,-0.305,-0.061,-0.122,0.01611,0.02246,1.01269,28.92
$MAG,2562.601,-0.333,-0.280,-0.897,28.1
$IMU,2562.602,-0.244,-0.183,-0.122,0.01757,0.02392,1.01318,28.92
$IMU,2562.604,-0.183,-0.183,-0.061,0.01855,0.02490,1.01513,28.92
$IMU,2562.607,-0.244,-0.061,-0.183,0.01806,0.02685,1.01562,28.92
$IMU,2562.609,-0.305,0.061,-0.122,0.01855,0.02343,1.01562,28.92
$MAG,2562.611,-0.342,-0.277,-0.903,28.1
$IMU,2562.611,-0.183,-0.244,-0.122,0.02099,0.02441,1.01416,28.92
$IMU,2562.614,-0.183,-0.061,-0.183,0.01953,0.02392,1.01513,28.92
$IMU,2562.616,-0.244,-0.061,-0.122,0.01562,0.02587,1.01318,28.92
$IMU,2562.618,-0.244,0.000,-0.122,0.01708,0.02490,1.01367,28.92
$MAG,2562.621,-0.334,-0.270,-0.903,28.1
$IMU,2562.621,-0.244,-0.061,-0.122,0.01562,0.02294,1.01611,28.94
$IMU,2562.623,-0.244,0.000,-0.122,0.01611,0.02343,1.01562,28.94
$IMU,2562.625,-0.244,0.000,-0.244,0.01611,0.02636,1.01611,28.94
$IMU,2562.628,-0.244,0.000,-0.183,0.01757,0.02148,1.01611,28.94
$IMU,2562.630,-0.244,-0.061,-0.122,0.01513,0.02294,1.01464,28.94
$MAG,2562.631,-0.336,-0.267,-0.909,28.1
$IMU,2562.632,-0.183,-0.122,-0.122,0.01416,0.02392,1.01464,28.94
$IMU,2562.635,-0.366,0.122,-0.183,0.01416,0.02246,1.01464,28.94
$IMU,2562.637,-0.427,0.061,-0.183,0.01708,0.02490,1.01562,28.94
$IMU,2562.640,-0.427,-0.061,-0.244,0.01757,0.02685,1.01611,28.94
$MAG,2562.641,-0.339,-0.276,-0.895,28.1
$IMU,2562.642,-0.366,-0.061,-0.244,0.01513,0.02490,1.01513,28.94
$IMU,2562.644,-0.244,-0.244,-0.244,0.01708,0.02539,1.01464,28.94
$IMU,2562.647,-0.183,-0.305,-0.122,0.01464,0.02636,1.01562,28.94
$IMU,2562.649,-0.183,-0.305,-0.061,0.01464,0.02050,1.01220,28.94
$MAG,2562.651,-0.339,-0.270,-0.901,28.1
$IMU,2562.651,-0.244,-0.244,-0.244,0.01855,0.02734,1.01318,28.94
$IMU,2562.654,-0.244,-0.122,-0.244,0.01757,0.02441,1.01611,28.94
$IMU,2562.656,-0.244,-0.061,-0.183,0.01562,0.02441,1.01464,28.94
$IMU,2562.658,-0.183,-0.122,-0.122,0.01806,0.02441,1.01416,28.93
$MAG,2562.661,-0.336,-0.271,-0.898,27.8
$IMU,2562.661,-0.183,-0.183,-0.122,0.01953,0.02490,1.01464,28.93
$IMU,2562.663,-0.183,-0.122,-0.122,0.01806,0.02001,1.01562,28.93
$IMU,2562.665,-0.244,-0.122,-0.061,0.01708,0.02587,1.01611,28.93
$IMU,2562.668,-0.305,-0.061,-0.122,0.01660,0.02734,1.01269,28.93
$IMU,2562.670,-0.183,0.000,-0.122,0.01611,0.02539,1.01220,28.93
$MAG,2562.672,-0.348,-0.277,-0.903,28.2
$IMU,2562.672,-0.183,-0.061,-0.122,0.01708,0.02539,1.01611,28.93
$BARO,2562.674,86429.67,29.07
$IMU,2562.675,-0.305,-0.061,-0.183,0.01855,0.02392,1.01513,28.93
$IMU,2562.677,-0.183,-0.122,-0.122,0.01708,0.02539,1.01367,28.92
$IMU,2562.679,-0.305,-0.061,-0.122,0.01611,0.02587,1.01367,28.92
$MAG,2562.682,-0.336,-0.277,-0.904,28.2
$IMU,2562.682,-0.366,-0.061,-0.183,0.01757,0.02294,1.01611,28.92
$IMU,2562.684,-0.366,-0.061,-0.122,0.01806,0.02685,1.01611,28.92
$IMU,2562.686,-0.427,-0.061,-0.183,0.01464,0.02441,1.01367,28.92
$IMU,2562.689,-0.427,-0.122,-0.183,0.01757,0.02343,1.01708,28.92
$IMU,2562.691,-0.488,0.061,-0.183,0.01708,0.02343,1.01562,28.92
$MAG,2562.692,-0.342,-0.268,-0.903,28.1
$IMU,2562.693,-0.427,0.000,-0.183,0.01660,0.02490,1.01513,28.92
$IMU,2562.696,-0.366,-0.122,-0.183,0.01464,0.02148,1.01269,28.98
$IMU,2562.698,-0.366,-0.183,-0.183,0.01367,0.02294,1.01513,28.98
$IMU,2562.701,-0.366,-0.122,-0.122,0.01513,0.02197,1.01562,28.98
$MAG,2562.702,-0.339,-0.271,-0.898,28.1
$IMU,2562.703,-0.305,-0.122,-0.244,0.01464,0.02539,1.01464,28.98
$IMU,2562.705,-0.305,-0.122,-0.244,0.01660,0.02148,1.01708,28.98
$IMU,2562.708,-0.244,-0.061,-0.183,0.01416,0.02392,1.01318,28.98
$IMU,2562.710,-0.244,-0.122,-0.183,0.01562,0.02294,1.01416,28.98
$MAG,2562.712,-0.339,-0.273,-0.901,28.0
$IMU,2562.712,-0.122,-0.122,-0.122,0.01953,0.02197,1.01416,28.98
$IMU,2562.715,-0.183,-0.122,-0.122,0.01660,0.02392,1.01806,28.96
$IMU,2562.717,-0.305,-0.061,-0.122,0.01953,0.02197,1.01562,28.96
$IMU,2562.719,-0.183,-0.061,-0.122,0.02001,0.02246,1.01220,28.96
$MAG,2562.722,-0.339,-0.271,-0.904,28.1
$IMU,2562.722,-0.244,0.000,-0.183,0.01953,0.02148,1.01416,28.96
$IMU,2562.724,-0.305,0.000,-0.122,0.01806,0.02636,1.01318,28.96
$IMU,2562.726,-0.305,0.000,-0.122,0.01660,0.02441,1.01220,28.96
$IMU,2562.729,-0.244,0.000,-0.122,0.01855,0.02490,1.01464,28.96
$IMU,2562.731,-0.183,0.000,-0.122,0.01708,0.02636,1.01513,28.96
$MAG,2562.732,-0.343,-0.267,-0.895,28.1
$IMU,2562.733,-0.244,0.000,-0.122,0.01562,0.02685,1.00878,28.92
$IMU,2562.736,-0.244,-0.122,-0.183,0.01513,0.02148,1.01269,28.92
$VBAT,2562.737,4.138
$IMU,2562.738,-0.305,-0.183,-0.122,0.01464,0.02343,1.01269,28.92
$IMU,2562.740,-0.305,-0.122,-0.122,0.01611,0.02197,1.01171,28.92
$MAG,2562.742,-0.342,-0.276,-0.903,28.1
$IMU,2562.743,-0.366,-0.183,-0.122,0.01513,0.02343,1.01367,28.92
$IMU,2562.745,-0.366,-0.122,-0.183,0.01611,0.02294,1.01464,28.92
$IMU,2562.747,-0.305,-0.122,-0.183,0.01611,0.02587,1.01416,28.92
$IMU,2562.750,-0.305,-0.183,-0.183,0.01660,0.02490,1.01513,28.92
$MAG,2562.752,-0.342,-0.276,-0.898,28.1
$IMU,2562.752,-0.305,-0.244,-0.122,0.01513,0.02392,1.01562,28.93
$IMU,2562.754,-0.305,-0.122,-0.183,0.01562,0.02050,1.01660,28.93
$IMU,2562.757,-0.244,-0.061,-0.183,0.01757,0.02197,1.01611,28.93
$IMU,2562.759,-0.183,-0.183,-0.183,0.01660,0.02441,1.01611,28.93
$MAG,2562.762,-0.337,-0.265,-0.901,28.0
$IMU,2562.762,-0.244,-0.122,-0.122,0.01708,0.02587,1.01562,28.93
$IMU,2562.764,-0.244,-0.061,-0.183,0.01757,0.02343,1.01464,28.93
$IMU,2562.766,-0.183,-0.183,-0.183,0.01660,0.02343,1.01367,28.93
$IMU,2562.769,-0.244,-0.061,-0.183,0.01562,0.02392,1.01318,28.93
$IMU,2562.771,-0.244,0.000,-0.244,0.01757,0.02539,1.01562,28.96
$MAG,2562.772,-0.340,-0.274,-0.903,28.2
$IMU,2562.773,-0.122,-0.183,-0.183,0.01708,0.02636,1.01513,28.96
$BARO,2562.776,86424.21,29.07
$IMU,2562.776,-0.122,-0.061,-0.122,0.02099,0.02490,1.01269,28.96
$IMU,2562.778,-0.244,-0.061,-0.061,0.01953,0.02343,1.01269,28.96
$IMU,2562.780,-0.305,0.061,-0.122,0.01562,0.02636,1.01269,28.96
$IMU,2562.783,-0.244,0.122,-0.122,0.01660,0.02636,1.01464,28.96
$MAG,2562.783,-0.336,-0.276,-0.894,28.1
$IMU,2562.785,-0.183,-0.061,-0.122,0.01953,0.02539,1.01562,28.96
$IMU,2562.787,-0.305,-0.061,-0.183,0.01611,0.02392,1.01318,28.96
$IMU,2562.790,-0.305,-0.061,-0.183,0.01904,0.02392,1.01269,28.98
$IMU,2562.792,-0.305,-0.061,-0.183,0.01757,0.02343,1.01464,28.98
$MAG,2562.793,-0.334,-0.268,-0.892,28.1
$IMU,2562.794,-0.366,0.000,-0.183,0.01611,0.02246,1.01464,28.98
$IMU,2562.797,-0.305,-0.061,-0.183,0.01904,0.02441,1.01464,28.98
$IMU,2562.799,-0.305,-0.122,-0.183,0.01660,0.02246,1.01367,28.98
$IMU,2562.801,-0.366,-0.183,-0.183,0.01611,0.02050,1.00976,28.98
$MAG,2562.803,-0.343,-0.274,-0.897,28.1
$IMU,2562.804,-0.427,-0.183,-0.122,0.01660,0.02490,1.01416,28.98
$IMU,2562.806,-0.305,-0.122,-0.183,0.01708,0.02197,1.01513,28.98
$IMU,2562.808,-0.305,-0.061,-0.183,0.01513,0.02392,1.01318,28.98
$IMU,2562.811,-0.305,-0.061,-0.122,0.01757,0.02148,1.01074,28.98
$MAG,2562.813,-0.334,-0.271,-0.900,28.1
$IMU,2562.813,-0.122,-0.183,-0.244,0.01464,0.02539,1.01367,28.98
$IMU,2562.815,-0.183,-0.183,-0.183,0.01855,0.02539,1.01269,28.98
$IMU,2562.818,-0.244,-0.061,-0.122,0.01953,0.02148,1.01464,28.98
$IMU,2562.820,-0.244,-0.061,-0.122,0.01953,0.02246,1.01513,28.98
$MAG,2562.823,-0.343,-0.267,-0.901,28.1
$IMU,2562.823,-0.244,-0.061,-0.244,0.01757,0.02539,1.01611,28.98
$IMU,2562.825,-0.244,0.000,-0.183,0.01611,0.02343,1.01855,28.98
$IMU,2562.827,-0.183,-0.122,-0.122,0.01708,0.02587,1.01367,28.92
$IMU,2562.830,-0.244,-0.122,-0.183,0.01708,0.02343,1.01660,28.92
$IMU,2562.832,-0.244,-0.061,-0.122,0.01904,0.02392,1.01708,28.92
$MAG,2562.833,-0.334,-0.279,-0.900,28.1
$IMU,2562.834,-0.305,0.061,-0.183,0.02148,0.02441,1.01367,28.92
$IMU,2562.837,-0.366,0.000,-0.244,0.01806,0.02294,1.01416,28.92
$IMU,2562.839,-0.305,-0.122,-0.244,0.01953,0.02490,1.01269,28.92
$IMU,2562.841,-0.366,-0.061,-0.183,0.01416,0.02685,1.01416,28.92
$MAG,2562.843,-0.336,-0.276,-0.907,28.1
$IMU,2562.844,-0.305,-0.183,-0.183,0.01660,0.02490,1.01464,28.92
$IMU,2562.846,-0.427,-0.061,-0.183,0.01855,0.02050,1.01416,28.93
$IMU,2562.848,-0.549,0.061,-0.122,0.01708,0.02392,1.01855,28.93
$IMU,2562.851,-0.305,-0.366,-0.183,0.01855,0.02294,1.01708,28.93
$MAG,2562.853,-0.337,-0.276,-0.904,28.2
$IMU,2562.853,-0.244,-0.244,-0.183,0.01757,0.02246,1.01562,28.93
$IMU,2562.855,-0.244,-0.183,-0.122,0.01562,0.02246,1.01367,28.93
$IMU,2562.858,-0.244,-0.305,-0.122,0.01611,0.02099,1.01464,28.93
$IMU,2562.860,-0.244,-0.183,-0.244,0.01953,0.02294,1.01416,28.93
$IMU,2562.862,-0.183,-0.183,-0.183,0.01757,0.02539,1.01660,28.93
$MAG,2562.863,-0.337,-0.280,-0.903,28.0
$IMU,2562.865,-0.183,-0.122,-0.122,0.01660,0.02441,1.01562,28.97
$IMU,2562.867,-0.122,-0.122,-0.122,0.01660,0.02050,1.01416,28.97
$IMU,2562.869,-0.183,-0.183,-0.183,0.01953,0.02685,1.01464,28.97
$IMU,2562.872,-0.305,-0.061,-0.183,0.01855,0.02343,1.01611,28.97
$MAG,2562.873,-0.334,-0.279,-0.907,28.1
$IMU,2562.874,-0.183,-0.061,-0.122,0.01611,0.02001,1.01660,28.97
$IMU,2562.876,-0.183,-0.183,-0.244,0.01708,0.02099,1.01513,28.97
$BARO,2562.877,86435.11,29.07
$IMU,2562.879,-0.183,-0.061,-0.244,0.01708,0.02343,1.01416,28.97
$IMU,2562.881,-0.122,-0.122,-0.183,0.01855,0.02441,1.01464,28.97
$MAG,2562.883,-0.339,-0.279,-0.895,28.1
$IMU,2562.884,-0.183,-0.061,-0.183,0.01464,0.02441,1.01220,28.97
$IMU,2562.886,-0.244,-0.061,-0.122,0.01464,0.02441,1.01171,28.97
$IMU,2562.888,-0.244,0.061,-0.122,0.01806,0.02587,1.01171,28.97
$IMU,2562.891,-0.305,0.000,-0.122,0.01611,0.02148,1.01074,28.97
$IMU,2562.893,-0.305,-0.061,-0.122,0.01513,0.02441,1.01464,28.97
$MAG,2562.894,-0.342,-0.280,-0.909,28.2
$IMU,2562.895,-0.366,-0.061,-0.122,0.01269,0.02197,1.01513,28.97
$IMU,2562.898,-0.427,0.000,-0.122,0.01367,0.02343,1.01367,28.97
$IMU,2562.900,-0.366,-0.061,-0.244,0.01513,0.02685,1.01220,28.97
$IMU,2562.902,-0.427,-0.122,-0.183,0.01562,0.02392,1.01367,28.94
$MAG,2562.904,-0.346,-0.270,-0.906,28.1
$IMU,2562.905,-0.305,-0.183,-0.122,0.01660,0.02343,1.01562,28.94
$IMU,2562.907,-0.366,-0.122,-0.122,0.01806,0.02343,1.01074,28.94
$IMU,2562.909,-0.305,-0.061,-0.244,0.01660,0.02246,1.01660,28.94
$IMU,2562.912,-0.305,0.000,-0.183,0.01708,0.02539,1.01464,28.94
$MAG,2562.914,-0.339,-0.265,-0.889,28.1
$IMU,2562.914,-0.183,-0.305,-0.183,0.01513,0.02441,1.01416,28.94
$IMU,2562.916,-0.244,-0.183,-0.122,0.01416,0.02392,1.01367,28.94
$IMU,2562.919,-0.244,-0.122,-0.122,0.01220,0.02490,1.01464,28.94
$IMU,2562.921,-0.183,-0.183,-0.122,0.01513,0.02441,1.01416,28.97
$IMU,2562.923,-0.244,-0.061,-0.122,0.01416,0.02734,1.01562,28.97
$MAG,2562.924,-0.337,-0.274,-0.895,28.1
$IMU,2562.926,-0.183,0.061,-0.244,0.01660,0.02880,1.01416,28.97
$IMU,2562.928,-0.183,-0.183,-0.183,0.01562,0.02539,1.01318,28.97
$IMU,2562.930,-0.122,-0.122,-0.122,0.01855,0.02441,1.01318,28.97
$IMU,2562.933,-0.122,-0.122,-0.183,0.01464,0.02441,1.01562,28.97
$MAG,2562.934,-0.339,-0.270,-0.901,28.1
$IMU,2562.935,-0.183,0.000,-0.061,0.01855,0.02636,1.01416,28.97
$IMU,2562.937,-0.183,0.000,-0.122,0.01855,0.02734,1.01416,28.97
$IMU,2562.940,-0.183,-0.122,-0.183,0.02001,0.02783,1.01464,28.94
$IMU,2562.942,-0.244,-0.122,-0.122,0.01562,0.02441,1.01464,28.94
$MAG,2562.944,-0.336,-0.262,-0.901,28.2
$IMU,2562.944,-0.244,-0.061,-0.122,0.01660,0.02685,1.01318,28.94
$IMU,2562.947,-0.305,-0.183,-0.244,0.02050,0.02246,1.01220,28.94
$IMU,2562.949,-0.366,-0.122,-0.183,0.01904,0.02294,1.01269,28.94
$IMU,2562.952,-0.427,0.061,-0.183,0.01611,0.02343,1.01416,28.94
$MAG,2562.954,-0.327,-0.276,-0.906,28.1
$IMU,2562.954,-0.366,-0.061,-0.183,0.01904,0.02294,1.01464,28.94
$IMU,2562.956,-0.427,-0.122,-0.183,0.01757,0.02246,1.01269,28.94
$IMU,2562.959,-0.366,-0.061,-0.183,0.01513,0.02246,1.01562,28.94
$IMU,2562.961,-0.366,-0.061,-0.183,0.01464,0.02441,1.01123,28.94
$IMU,2562.963,-0.427,0.000,-0.122,0.01513,0.02246,1.01318,28.94
$MAG,2562.964,-0.339,-0.274,-0.895,28.1
$IMU,2562.966,-0.488,0.122,-0.183,0.01660,0.02050,1.01611,28.94
$IMU,2562.968,-0.366,-0.122,-0.183,0.01660,0.02246,1.01464,28.94
$IMU,2562.970,-0.183,-0.183,-0.183,0.01562,0.02294,1.01123,28.94
$IMU,2562.973,-0.183,-0.122,-0.183,0.01562,0.02099,1.01220,28.94
$MAG,2562.974,-0.339,-0.268,-0.904,28.1
$IMU,2562.975,-0.122,-0.183,-0.183,0.01708,0.02197,1.01318,28.94
$IMU,2562.977,-0.061,-0.244,-0.122,0.01806,0.02441,1.01416,28.96
$BARO,2562.979,86432.62,29.07
$IMU,2562.980,0.000,-0.183,-0.061,0.01855,0.02539,1.01367,28.96
$IMU,2562.982,-0.122,-0.122,-0.122,0.01757,0.02197,1.01562,28.96
$MAG,2562.984,-0.345,-0.274,-0.900,28.1
$IMU,2562.984,0.000,-0.122,-0.183,0.01660,0.02197,1.01464,28.96
$IMU,2562.987,-0.183,-0.061,-0.183,0.01855,0.02734,1.01416,28.96
$IMU,2562.989,-0.244,0.000,-0.122,0.01562,0.02343,1.01660,28.96
$IMU,2562.991,-0.244,-0.061,-0.183,0.01953,0.02685,1.01660,28.96
$IMU,2562.994,-0.244,-0.122,-0.183,0.01757,0.02636,1.01660,28.96
$MAG,2562.995,-0.340,-0.268,-0.906,28.2
$IMU,2562.996,-0.244,-0.061,-0.183,0.01953,0.02392,1.01611,28.96
$IMU,2562.998,-0.366,-0.122,-0.183,0.01464,0.02441,1.01464,28.96
$IMU,2563.001,-0.305,-0.305,-0.183,0.01904,0.02490,1.01611,28.96
$IMU,2563.003,-0.244,-0.183,-0.244,0.01806,0.02490,1.01562,28.96
$MAG,2563.005,-0.342,-0.280,-0.906,28.1
$IMU,2563.005,-0.244,-0.305,-0.183,0.01904,0.02343,1.01708,28.96
$IMU,2563.008,-0.305,-0.244,-0.122,0.01708,0.02343,1.01904,28.96
$IMU,2563.010,-0.366,-0.061,-0.183,0.01806,0.02343,1.02001,28.96
$IMU,2563.013,-0.366,0.122,-0.183,0.01513,0.02539,1.01855,28.96
$MAG,2563.015,-0.340,-0.271,-0.898,28.1
$IMU,2563.015,-0.244,0.000,-0.183,0.01367,0.02490,1.01953,28.93
$IMU,2563.017,-0.305,-0.122,-0.122,0.01513,0.02490,1.02001,28.93
$IMU,2563.020,-0.366,-0.061,-0.122,0.01660,0.02392,1.01708,28.93
$IMU,2563.022,-0.427,0.000,-0.183,0.01611,0.02539,1.01464,28.93
$IMU,2563.024,-0.427,0.000,-0.183,0.01562,0.02441,1.01416,28.93
$MAG,2563.025,-0.342,-0.282,-0.898,28.1
$HUM,2563.026,37.1,29.5
$IMU,2563.027,-0.427,-0.061,-0.244,0.01806,0.01953,1.01464,28.93
$IMU,2563.029,-0.427,-0.061,-0.183,0.01611,0.02587,1.01318,28.93
$IMU,2563.031,-0.305,-0.061,-0.183,0.01611,0.02441,1.01318,28.93
$IMU,2563.034,-0.366,0.122,-0.183,0.01660,0.02148,1.01220,29.00
$MAG,2563.035,-0.339,-0.270,-0.903,28.2
$IMU,2563.036,-0.366,0.000,-0.244,0.01855,0.02099,1.01513,29.00
$IMU,2563.038,-0.122,-0.183,-0.183,0.01904,0.02490,1.01318,29.00
$IMU,2563.041,-0.244,0.061,-0.122,0.01708,0.02392,1.01464,29.00
$IMU,2563.043,-0.305,-0.061,-0.183,0.01367,0.02441,1.01074,29.00
$MAG,2563.045,-0.339,-0.271,-0.901,28.1
$IMU,2563.045,-0.244,0.061,-0.122,0.01416,0.02246,1.01074,29.00
$IMU,2563.048,-0.305,0.000,-0.122,0.01464,0.02441,1.01464,29.00
$IMU,2563.050,-0.305,-0.122,-0.183,0.01562,0.02197,1.01220,29.00
$IMU,2563.052,-0.305,-0.183,-0.183,0.01708,0.02441,1.01269,28.96
$MAG,2563.055,-0.346,-0.279,-0.910,28.1
$IMU,2563.055,-0.244,-0.183,-0.122,0.01416,0.02197,1.01220,28.96
$IMU,2563.057,-0.244,-0.244,-0.183,0.01513,0.02246,1.01318,28.96
$IMU,2563.059,-0.305,-0.183,-0.244,0.01562,0.02197,1.01464,28.96
$IMU,2563.062,-0.305,-0.122,-0.183,0.01660,0.02001,1.01464,28.96
$IMU,2563.064,-0.305,-0.183,-0.183,0.01708,0.02490,1.01757,28.96
$MAG,2563.065,-0.340,-0.273,-0.904,28.1
$IMU,2563.066,-0.244,-0.244,-0.183,0.01904,0.02392,1.01806,28.96
$IMU,2563.069,-0.305,-0.061,-0.122,0.02001,0.02294,1.01269,28.96
$IMU,2563.071,-0.244,-0.366,-0.122,0.01757,0.02050,1.01416,28.98
$IMU,2563.074,-0.305,-0.244,-0.183,0.01464,0.02539,1.01611,28.98
$MAG,2563.075,-0.330,-0.279,-0.901,28.0
$IMU,2563.076,-0.305,-0.122,-0.183,0.01708,0.02294,1.01757,28.98
$IMU,2563.078,-0.244,-0.183,-0.183,0.01855,0.02001,1.01123,28.98
$BARO,2563.080,86428.31,29.06
$IMU,2563.081,-0.183,-0.183,-0.183,0.02001,0.02050,1.01806,28.98
$IMU,2563.083,-0.183,-0.061,-0.244,0.02050,0.02343,1.01855,28.98
$MAG,2563.085,-0.346,-0.280,-0.907,28.2
$IMU,2563.085,-0.183,-0.122,-0.244,0.01611,0.02587,1.01855,28.98
$IMU,2563.088,-0.183,0.061,-0.122,0.01757,0.02441,1.01416,28.98
$IMU,2563.090,-0.183,0.122,-0.122,0.01806,0.02294,1.01611,29.02
$IMU,2563.092,-0.183,-0.061,-0.122,0.01660,0.02587,1.01708,29.02
$IMU,2563.095,-0.122,0.000,-0.122,0.01513,0.02441,1.01367,29.02
$MAG,2563.096,-0.348,-0.277,-0.897,28.1
$IMU,2563.097,-0.305,0.061,-0.122,0.01562,0.02636,1.01562,29.02
$IMU,2563.099,-0.366,0.061,-0.183,0.01708,0.02539,1.01367,29.02
$IMU,2563.102,-0.427,0.061,-0.183,0.01757,0.02685,1.01611,29.02
$IMU,2563.104,-0.488,0.061,-0.122,0.01562,0.02587,1.01318,29.02
$MAG,2563.106,-0.340,-0.268,-0.907,28.1
$IMU,2563.106,-0.427,0.000,-0.244,0.01464,0.02197,1.01367,29.02
$IMU,2563.109,-0.427,-0.122,-0.122,0.01611,0.02197,1.00781,28.98
$IMU,2563.111,-0.488,0.000,-0.183,0.01464,0.02587,1.01171,28.98
$IMU,2563.113,-0.488,-0.061,-0.183,0.01757,0.02197,1.01269,28.98
$MAG,2563.116,-0.330,-0.276,-0.904,28.0
$IMU,2563.116,-0.366,-0.183,-0.122,0.01513,0.02246,1.01464,28.98
$IMU,2563.118,-0.305,-0.244,-0.183,0.01318,0.02343,1.01318,28.98
$IMU,2563.120,-0.305,-0.305,-0.183,0.01708,0.02246,1.01416,28.98
$IMU,2563.123,-0.244,-0.366,-0.183,0.01464,0.02001,1.01220,28.98
$IMU,2563.125,-0.244,-0.305,-0.183,0.01757,0.02197,1.01464,28.98
$MAG,2563.126,-0.339,-0.270,-0.894,28.1
$IMU,2563.127,-0.183,-0.305,-0.244,0.02148,0.02197,1.01611,28.96
$IMU,2563.130,-0.305,-0.061,-0.122,0.01660,0.02294,1.01464,28.96
$IMU,2563.132,-0.244,-0.183,-0.122,0.01806,0.02099,1.01367,28.96
$IMU,2563.135,-0.244,-0.244,-0.122,0.01757,0.02392,1.01416,28.96
$MAG,2563.136,-0.339,-0.273,-0.903,28.2
$IMU,2563.137,-0.244,-0.122,-0.122,0.02050,0.02099,1.01611,28.96
$IMU,2563.139,-0.183,0.000,-0.183,0.02539,0.02490,1.01416,28.96
$IMU,2563.142,-0.122,-0.122,-0.244,0.01855,0.02441,1.01562,28.96
$IMU,2563.144,-0.183,-0.061,-0.122,0.01708,0.02294,1.01416,28.96
$MAG,2563.146,-0.340,-0.270,-0.903,28.1
$IMU,2563.146,-0.183,-0.122,-0.183,0.01708,0.02294,1.01464,28.96
$IMU,2563.149,-0.244,-0.061,-0.122,0.01855,0.02587,1.01269,28.96
$IMU,2563.151,-0.305,0.000,-0.122,0.01611,0.02587,1.01464,28.96
$IMU,2563.153,-0.305,0.061,-0.183,0.01464,0.02343,1.01318,28.96
$MAG,2563.156,-0.343,-0.277,-0.903,28.1
$IMU,2563.156,-0.305,-0.061,-0.183,0.01562,0.02832,1.01464,28.96
$IMU,2563.158,-0.305,-0.183,-0.244,0.01464,0.02587,1.01464,28.96
$IMU,2563.160,-0.366,-0.061,-0.122,0.01708,0.02099,1.01123,28.96
$IMU,2563.163,-0.427,0.061,-0.183,0.01708,0.02343,1.01416,28.96
$IMU,2563.165,-0.305,-0.122,-0.183,0.01611,0.02197,1.01660,28.97
$MAG,2563.166,-0.342,-0.276,-0.906,28.1
$IMU,2563.167,-0.366,0.000,-0.122,0.01464,0.02343,1.01611,28.97
$IMU,2563.170,-0.305,-0.061,-0.122,0.01660,0.02050,1.01416,28.97
$IMU,2563.172,-0.305,-0.183,-0.122,0.01708,0.02294,1.01806,28.97
$IMU,2563.174,-0.305,-0.183,-0.122,0.01708,0.02294,1.01953,28.97
$MAG,2563.176,-0.337,-0.267,-0.904,28.2
$IMU,2563.177,-0.183,-0.122,-0.183,0.01562,0.02490,1.01660,28.97
$IMU,2563.179,-0.183,-0.122,-0.244,0.01660,0.02246,1.01611,28.97
$BARO,2563.181,86432.62,29.07
$IMU,2563.181,-0.183,-0.183,-0.183,0.01611,0.02392,1.01464,28.97
$IMU,2563.184,-0.122,-0.183,-0.183,0.01953,0.02392,1.01562,29.00
$MAG,2563.186,-0.336,-0.274,-0.900,28.1
$IMU,2563.186,-0.183,-0.244,-0.183,0.01953,0.02490,1.01562,29.00
$IMU,2563.188,-0.183,-0.244,-0.183,0.01855,0.02490,1.01464,29.00
$IMU,2563.191,-0.244,-0.122,-0.183,0.01953,0.02587,1.01513,29.00
$IMU,2563.193,-0.305,-0.122,-0.122,0.01806,0.02246,1.01171,29.00
$IMU,2563.196,-0.305,-0.061,-0.183,0.01611,0.02685,1.01611,29.00
$MAG,2563.197,-0.348,-0.270,-0.901,28.1
$IMU,2563.198,-0.366,0.000,-0.122,0.01953,0.02587,1.01611,29.00
$IMU,2563.200,-0.305,0.061,-0.122,0.01464,0.02490,1.01464,29.00
$IMU,2563.203,-0.427,0.061,-0.122,0.01757,0.02392,1.01123,28.94
$IMU,2563.205,-0.366,-0.061,-0.183,0.01416,0.02343,1.01220,28.94
$MAG,2563.207,-0.342,-0.273,-0.903,28.2
$IMU,2563.207,-0.366,-0.122,-0.183,0.01367,0.02343,1.01416,28.94
$IMU,2563.210,-0.305,-0.122,-0.183,0.01416,0.02392,1.01513,28.94
$IMU,2563.212,-0.305,-0.183,-0.183,0.01757,0.02294,1.01708,28.94
$IMU,2563.214,-0.305,-0.061,-0.244,0.01367,0.02294,1.01464,28.94
$MAG,2563.217,-0.337,-0.277,-0.904,28.2
$IMU,2563.217,-0.427,-0.122,-0.183,0.01611,0.02246,1.01464,28.94
$IMU,2563.219,-0.427,-0.061,-0.183,0.01464,0.02148,1.01416,28.94
$IMU,2563.221,-0.305,-0.244,-0.183,0.01708,0.02441,1.01708,28.96
$IMU,2563.224,-0.366,-0.122,-0.122,0.01464,0.02685,1.01660,28.96
$IMU,2563.226,-0.366,-0.061,-0.183,0.01806,0.02587,1.01660,28.96
$MAG,2563.227,-0.342,-0.271,-0.901,28.1
$IMU,2563.228,-0.366,-0.183,-0.244,0.01318,0.02587,1.01513,28.96
$IMU,2563.231,-0.366,-0.122,-0.183,0.01318,0.02343,1.01708,28.96
$IMU,2563.233,-0.305,-0.244,-0.122,0.01953,0.02050,1.01660,28.96
$IMU,2563.235,-0.122,-0.549,-0.183,0.01806,0.02490,1.01464,28.96
$MAG,2563.237,-0.331,-0.276,-0.898,28.2
$IMU,2563.238,-0.122,-0.427,-0.122,0.01269,0.02490,1.01806,28.96
$IMU,2563.240,-0.305,0.000,-0.183,0.02099,0.02587,1.01904,28.96
$IMU,2563.242,-0.244,-0.244,-0.244,0.01904,0.02539,1.01708,28.96
$IMU,2563.245,-0.305,0.000,-0.183,0.01660,0.02294,1.01464,28.96
$MAG,2563.247,-0.334,-0.268,-0.903,28.1
$IMU,2563.247,-0.244,-0.061,-0.183,0.01708,0.02392,1.01464,28.96
$IMU,2563.249,-0.305,-0.122,-0.122,0.01562,0.02539,1.01416,28.96
$IMU,2563.252,-0.366,0.000,-0.122,0.01708,0.02587,1.01562,28.96
$IMU,2563.254,-0.427,0.061,-0.183,0.01757,0.02343,1.01708,28.96
$MAG,2563.257,-0.343,-0.267,-0.903,28.1
$IMU,2563.257,-0.488,-0.061,-0.244,0.01660,0.02294,1.01562,28.96
$IMU,2563.259,-0.488,-0.061,-0.122,0.01708,0.02490,1.01513,28.98
$IMU,2563.261,-0.427,0.000,-0.183,0.01513,0.02197,1.01464,28.98
$IMU,2563.264,-0.366,-0.183,-0.183,0.01611,0.02392,1.01367,28.98
$IMU,2563.266,-0.427,-0.061,-0.183,0.01562,0.02148,1.01416,28.98
$MAG,2563.267,-0.348,-0.276,-0.897,28.1
$IMU,2563.268,-0.427,0.000,-0.183,0.01464,0.02148,1.01513,28.98
$IMU,2563.271,-0.488,-0.061,-0.183,0.01904,0.02343,1.01513,28.98
$IMU,2563.273,-0.488,-0.122,-0.183,0.01464,0.02441,1.01806,28.98
$IMU,2563.275,-0.488,-0.122,-0.122,0.01855,0.02246,1.01367,28.98
$MAG,2563.277,-0.336,-0.271,-0.909,28.1
$IMU,2563.278,-0.427,-0.244,-0.244,0.01855,0.02685,1.01416,29.00
$IMU,2563.280,-0.427,-0.122,-0.244,0.01513,0.01904,1.01708,29.00
$IMU,2563.282,-0.488,-0.061,-0.183,0.01611,0.02197,1.01660,29.00
$BARO,2563.283,86431.02,29.07
$IMU,2563.285,-0.366,-0.305,-0.183,0.01562,0.02246,1.01806,29.00
$MAG,2563.287,-0.343,-0.280,-0.903,28.2
$IMU,2563.287,-0.366,-0.305,-0.183,0.01171,0.02148,1.01367,29.00
$IMU,2563.289,-0.305,-0.305,-0.244,0.01562,0.02343,1.01660,29.00
$IMU,2563.292,-0.366,-0.244,-0.183,0.01904,0.02343,1.01513,29.00
$IMU,2563.294,-0.427,0.000,-0.244,0.01904,0.02441,1.01611,29.00
$IMU,2563.296,-0.488,0.000,-0.183,0.01904,0.02343,1.01464,28.98
$MAG,2563.297,-0.337,-0.267,-0.904,28.1
$IMU,2563.299,-0.488,0.000,-0.244,0.01708,0.02343,1.01416,28.98
$IMU,2563.301,-0.488,0.000,-0.244,0.02050,0.02197,1.01220,28.98
$IMU,2563.303,-0.549,0.122,-0.183,0.02001,0.02148,1.01220,28.98
$IMU,2563.306,-0.549,0.061,-0.183,0.02148,0.02050,1.00976,28.98
$MAG,2563.308,-0.348,-0.277,-0.901,28.1
$IMU,2563.308,-0.488,0.122,-0.183,0.02050,0.01953,1.00732,28.98
$IMU,2563.310,-0.549,0.244,-0.122,0.01611,0.02099,1.00878,28.98
$IMU,2563.313,-0.427,0.122,-0.122,0.01708,0.02001,1.00341,28.98
$IMU,2563.315,-0.427,0.061,-0.122,0.01464,0.02148,1.00195,28.98
$MAG,2563.318,-0.337,-0.270,-0.898,28.1
$IMU,2563.318,-0.366,0.000,-0.183,0.01513,0.01953,1.00146,28.98
$IMU,2563.320,-0.305,0.000,-0.122,0.02001,0.01611,1.00097,28.98
$IMU,2563.322,-0.183,0.000,-0.122,0.01660,0.01562,0.99804,28.98
$IMU,2563.325,-0.122,0.061,-0.183,0.02050,0.01660,0.99707,28.98
$IMU,2563.327,-0.061,-0.061,-0.183,0.02246,0.01855,0.99804,28.98
$MAG,2563.328,-0.346,-0.276,-0.907,28.2
$IMU,2563.329,0.061,-0.061,-0.122,0.02099,0.01660,0.99365,28.98
$IMU,2563.332,0.122,0.000,-0.183,0.02148,0.01708,0.99511,28.98
$IMU,2563.334,0.244,0.000,-0.122,0.02099,0.01660,0.99316,28.96
$IMU,2563.336,0.244,0.061,-0.061,0.02050,0.01904,0.99267,28.96
$MAG,2563.338,-0.337,-0.271,-0.909,28.1
$IMU,2563.339,0.305,0.000,-0.122,0.01855,0.01416,0.98925,28.96
$IMU,2563.341,0.366,0.000,-0.061,0.01708,0.01269,0.98876,28.96
$IMU,2563.343,0.305,0.122,-0.183,0.01611,0.01074,0.98632,28.96
$IMU,2563.346,0.488,0.061,-0.183,0.02197,0.01025,0.97998,28.96
$MAG,2563.348,-0.349,-0.274,-0.895,28.1
$IMU,2563.348,0.793,-0.061,-0.122,0.01855,0.01074,0.98535,28.96
$IMU,2563.350,1.220,-0.305,-0.061,0.01757,0.01611,0.99072,28.96
$IMU,2563.353,1.525,-0.549,-0.061,0.01660,0.01611,0.99169,28.92
$IMU,2563.355,1.525,-0.488,0.061,0.01562,0.01855,0.99804,28.92
$IMU,2563.357,1.464,-0.610,0.000,0.01611,0.01855,1.00488,28.92
$MAG,2563.358,-0.331,-0.270,-0.907,28.2
$IMU,2563.360,1.464,-0.671,0.000,0.01269,0.01757,1.00976,28.92
$IMU,2563.362,1.586,-0.610,0.000,0.01123,0.02343,1.01562,28.92
$IMU,2563.364,1.831,-0.854,0.000,0.01171,0.02587,1.01757,28.92
$IMU,2563.367,1.953,-0.915,0.000,0.01074,0.02734,1.02734,28.92
$MAG,2563.368,-0.336,-0.270,-0.898,28.1
$IMU,2563.369,1.831,-0.976,0.061,0.01416,0.03320,1.03466,28.92
$IMU,2563.371,1.647,-0.915,0.122,0.01171,0.03369,1.03857,28.96
$IMU,2563.374,1.586,-1.159,0.000,0.01025,0.04052,1.04492,28.96
$IMU,2563.376,1.464,-1.159,0.000,0.01074,0.04150,1.05712,28.96
$MAG,2563.378,-0.339,-0.273,-0.901,28.1
$IMU,2563.378,1.342,-1.403,-0.061,0.01025,0.04443,1.06640,28.96
$IMU,2563.381,0.915,-1.403,-0.061,0.01171,0.04589,1.07617,28.96
$IMU,2563.383,0.183,-1.098,-0.122,0.01611,0.04785,1.07519,28.96
$BARO,2563.384,86429.80,29.07
$IMU,2563.386,-0.427,-0.793,-0.244,0.01904,0.04785,1.07226,28.96
$MAG,2563.388,-0.337,-0.276,-0.904,28.1
$IMU,2563.388,-1.159,-0.427,-0.427,0.02587,0.04443,1.06689,28.96
$IMU,2563.390,-1.586,-0.061,-0.427,0.02832,0.04248,1.06689,28.96
$IMU,2563.393,-1.770,0.366,-0.366,0.02880,0.03759,1.06298,28.96
$IMU,2563.395,-1.831,0.671,-0.305,0.02441,0.03271,1.05419,28.96
$IMU,2563.397,-1.953,1.037,-0.244,0.02246,0.02832,1.05078,28.96
$MAG,2563.398,-0.339,-0.277,-0.898,28.2
$IMU,2563.400,-2.075,1.281,-0.305,0.02050,0.02294,1.04052,28.96
$IMU,2563.402,-2.075,1.342,-0.305,0.02148,0.02392,1.03222,28.96
$IMU,2563.404,-2.014,1.342,-0.244,0.01660,0.02148,1.02197,28.96
$IMU,2563.407,-1.831,1.525,-0.244,0.01269,0.02197,1.01220,28.96
$MAG,2563.409,-0.334,-0.276,-0.904,28.2
$IMU,2563.409,-1.403,1.525,-0.305,0.01416,0.01855,1.00292,28.98
$IMU,2563.411,-1.098,1.403,-0.244,0.01562,0.02001,0.99804,28.98
$IMU,2563.414,-0.854,1.159,-0.122,0.01220,0.02001,0.99267,28.98
$IMU,2563.416,-0.915,1.098,0.000,0.01123,0.02099,0.99121,28.98
$IMU,2563.418,-0.976,0.976,0.000,0.01416,0.02197,0.98632,28.98
$MAG,2563.419,-0.340,-0.270,-0.901,28.2
$IMU,2563.421,-0.854,0.915,-0.061,0.01269,0.01855,0.98291,28.98
$IMU,2563.423,-0.732,0.732,-0.061,0.00976,0.01855,0.97900,28.98
$IMU,2563.425,-0.549,0.366,-0.122,0.01269,0.02294,0.97998,28.98
$IMU,2563.428,-0.427,0.122,-0.061,0.01269,0.02099,0.97851,28.99
$MAG,2563.429,-0.336,-0.268,-0.901,28.2
$IMU,2563.430,-0.366,-0.122,-0.183,0.01171,0.02148,0.97607,28.99
$IMU,2563.432,-0.305,-0.366,-0.183,0.01269,0.02148,0.97949,28.99
$IMU,2563.435,-0.366,-0.549,-0.122,0.00878,0.02099,0.97851,28.99
$IMU,2563.437,-0.366,-0.732,-0.244,0.01269,0.01904,0.98095,28.99
$MAG,2563.439,-0.346,-0.271,-0.910,28.1
$IMU,2563.439,-0.305,-0.793,-0.183,0.01123,0.02050,0.98632,28.99
$IMU,2563.442,-0.183,-0.793,-0.183,0.01318,0.01074,0.99023,28.99
$IMU,2563.444,0.000,-0.854,-0.183,0.01269,0.01611,1.00097,28.99
$IMU,2563.447,0.305,-1.159,-0.244,0.01708,0.01611,1.00585,28.94
$MAG,2563.449,-0.339,-0.276,-0.904,28.1
$IMU,2563.449,0.488,-1.098,-0.122,0.01464,0.01953,1.00976,28.94
$IMU,2563.451,0.549,-1.098,-0.183,0.01416,0.01660,1.01367,28.94
$IMU,2563.454,0.671,-0.976,-0.061,0.01562,0.01855,1.01904,28.94
$IMU,2563.456,0.793,-1.037,-0.122,0.02050,0.02246,1.02246,28.94
$IMU,2563.458,0.915,-1.037,-0.122,0.02294,0.02392,1.02783,28.94
$MAG,2563.459,-0.337,-0.273,-0.897,28.1
$IMU,2563.461,0.793,-0.793,-0.122,0.02148,0.02636,1.03320,28.94
$IMU,2563.463,0.671,-0.671,-0.122,0.02246,0.02490,1.03662,28.94
$IMU,2563.465,0.488,-0.549,-0.122,0.02539,0.02636,1.03515,28.96
$IMU,2563.468,0.427,-0.488,-0.122,0.01953,0.02832,1.03906,28.96
$MAG,2563.469,-0.336,-0.273,-0.903,28.2
$IMU,2563.470,0.122,-0.183,-0.061,0.01757,0.02978,1.04101,28.96
$IMU,2563.472,-0.061,-0.061,-0.061,0.02050,0.03222,1.03906,28.96
$IMU,2563.475,-0.183,0.000,-0.122,0.01904,0.02734,1.03906,28.96
$IMU,2563.477,-0.244,0.061,-0.122,0.01953,0.03222,1.03417,28.96
$MAG,2563.479,-0.346,-0.271,-0.903,28.1
$IMU,2563.479,-0.488,0.366,-0.183,0.01904,0.02978,1.03466,28.96
$IMU,2563.482,-0.549,0.244,-0.244,0.01953,0.02783,1.03320,28.96
$IMU,2563.484,-0.732,0.427,-0.183,0.01660,0.02685,1.03076,28.98
$BARO,2563.486,86431.77,29.07
$IMU,2563.486,-0.732,0.366,-0.244,0.01464,0.02539,1.02929,28.98
$MAG,2563.489,-0.334,-0.271,-0.898,28.2
$IMU,2563.489,-0.793,0.305,-0.244,0.01464,0.02832,1.02343,28.98
$IMU,2563.491,-0.854,0.427,-0.244,0.01708,0.02587,1.02294,28.98
$IMU,2563.493,-0.915,0.427,-0.183,0.01318,0.02832,1.01855,28.98
$IMU,2563.496,-0.915,0.488,-0.183,0.01806,0.02441,1.01464,28.98
$IMU,2563.498,-0.854,0.488,-0.122,0.01464,0.02441,1.01367,28.98
$MAG,2563.499,-0.342,-0.276,-0.901,28.1
$IMU,2563.500,-0.854,0.427,-0.122,0.01464,0.02490,1.00878,28.98
$IMU,2563.503,-0.854,0.366,-0.183,0.01367,0.02490,1.00585,28.96
$IMU,2563.505,-0.793,0.244,-0.122,0.01513,0.02246,1.00634,28.96
$IMU,2563.508,-0.732,0.366,-0.183,0.01416,0.02148,1.00195,28.96
$MAG,2563.510,-0.337,-0.270,-0.903,28.1
$IMU,2563.510,-0.671,0.305,-0.244,0.01660,0.02050,0.99755,28.96
$IMU,2563.512,-0.488,0.061,-0.183,0.01171,0.02294,0.99511,28.96
$IMU,2563.515,-0.366,-0.061,-0.061,0.01416,0.02490,0.99560,28.96
$IMU,2563.517,-0.305,0.000,-0.122,0.01464,0.02392,0.99609,28.96
$IMU,2563.519,-0.305,-0.061,-0.122,0.01562,0.01953,0.99707,28.96
$MAG,2563.520,-0.334,-0.274,-0.898,28.2
$IMU,2563.522,-0.305,-0.122,-0.183,0.01269,0.02246,0.99804,28.96
$IMU,2563.524,-0.305,-0.244,-0.183,0.01416,0.02050,1.00000,28.96
$IMU,2563.526,-0.244,-0.244,-0.122,0.01513,0.02343,1.00146,28.96
$IMU,2563.529,0.000,-0.488,-0.183,0.01220,0.01953,1.00634,28.96
$MAG,2563.530,-0.346,-0.274,-0.903,28.1
$IMU,2563.531,0.000,-0.549,-0.122,0.01220,0.02050,1.00341,28.96
$IMU,2563.533,0.061,-0.427,-0.122,0.01123,0.02294,1.00830,28.96
$IMU,2563.536,0.244,-0.549,-0.183,0.01660,0.01953,1.00976,28.96
$IMU,2563.538,0.244,-0.610,-0.183,0.01220,0.02148,1.01318,28.96
$MAG,2563.540,-0.343,-0.273,-0.898,28.1
$IMU,2563.540,0.244,-0.549,-0.183,0.01611,0.02294,1.01953,28.99
$IMU,2563.543,0.305,-0.671,-0.122,0.01855,0.02539,1.02050,28.99
$IMU,2563.545,0.183,-0.671,-0.122,0.02197,0.02441,1.02392,28.99
$IMU,2563.547,0.122,-0.427,-0.122,0.01904,0.02441,1.02294,28.99
$MAG,2563.550,-0.337,-0.268,-0.907,28.0
$IMU,2563.550,0.061,-0.366,-0.122,0.01806,0.02490,1.02587,28.99
$IMU,2563.552,0.061,-0.244,-0.061,0.02148,0.02343,1.02392,28.99
$IMU,2563.554,-0.061,-0.183,-0.122,0.02148,0.02441,1.02294,28.99
$IMU,2563.557,0.000,-0.122,-0.061,0.02050,0.02539,1.02148,28.99
$IMU,2563.559,-0.061,0.000,-0.061,0.01757,0.02636,1.01904,28.97
$MAG,2563.560,-0.330,-0.273,-0.915,28.2
$IMU,2563.561,-0.122,0.061,-0.122,0.01904,0.02539,1.02148,28.97
$IMU,2563.564,-0.061,0.000,-0.122,0.01611,0.02685,1.02050,28.97
$IMU,2563.566,-0.122,0.000,-0.122,0.01562,0.02294,1.01904,28.97
$IMU,2563.569,-0.244,0.122,-0.183,0.02001,0.02392,1.02392,28.97
$MAG,2563.570,-0.343,-0.280,-0.900,28.2
$IMU,2563.571,-0.488,0.244,-0.183,0.02050,0.02685,1.02099,28.97
$IMU,2563.573,-0.549,0.427,-0.122,0.01806,0.02490,1.02148,28.97
$IMU,2563.576,-0.488,0.366,-0.183,0.01708,0.02392,1.01904,28.97
$IMU,2563.578,-0.366,0.244,-0.061,0.01513,0.02441,1.02001,28.96
$MAG,2563.580,-0.336,-0.276,-0.898,28.1
$IMU,2563.580,-0.305,0.244,-0.122,0.01269,0.02392,1.01953,28.96
$IMU,2563.583,-0.305,0.000,-0.244,0.01367,0.02685,1.01757,28.96
$IMU,2563.585,-0.427,0.000,-0.183,0.01757,0.02099,1.01708,28.96
$BARO,2563.587,86424.90,29.08
$IMU,2563.587,-0.549,0.000,-0.183,0.01660,0.02539,1.01367,28.96
$IMU,2563.590,-0.488,-0.122,-0.122,0.01708,0.02246,1.01318,28.96
$MAG,2563.590,-0.343,-0.274,-0.900,28.1
$IMU,2563.592,-0.549,-0.061,-0.122,0.01953,0.02539,1.01513,28.96
$IMU,2563.594,-0.427,-0.122,-0.122,0.01904,0.02392,1.01269,28.96
$IMU,2563.597,-0.610,0.244,-0.244,0.01953,0.02343,1.00976,28.98
$IMU,2563.599,-0.427,0.061,-0.122,0.01416,0.02099,1.01123,28.98
$MAG,2563.600,-0.337,-0.274,-0.904,28.1
$IMU,2563.601,-0.305,0.000,-0.061,0.01611,0.02246,1.00585,28.98
$IMU,2563.604,-0.183,0.000,-0.061,0.01464,0.02636,1.00634,28.98
$IMU,2563.606,-0.122,-0.061,-0.122,0.01513,0.02392,1.00292,28.98
$IMU,2563.608,-0.061,0.000,-0.183,0.01318,0.02441,1.00634,28.98
$MAG,2563.611,-0.333,-0.279,-0.900,27.8
$IMU,2563.611,-0.183,-0.122,-0.183,0.01367,0.02441,1.00732,28.98
$IMU,2563.613,-0.122,-0.061,-0.183,0.01708,0.02490,1.00634,28.98
$IMU,2563.615,-0.122,-0.183,-0.183,0.01611,0.02441,1.00976,29.04
$IMU,2563.618,-0.061,-0.305,-0.183,0.01855,0.02539,1.01025,29.04
$IMU,2563.620,0.000,-0.244,-0.183,0.01660,0.02294,1.01171,29.04
$MAG,2563.621,-0.343,-0.279,-0.898,28.2
$IMU,2563.622,0.061,-0.122,-0.183,0.01611,0.02539,1.01367,29.04
$IMU,2563.625,0.000,-0.122,-0.122,0.01416,0.02636,1.01660,29.04
$IMU,2563.627,0.061,-0.061,-0.122,0.01708,0.02880,1.01757,29.04
$IMU,2563.630,0.061,-0.183,-0.183,0.01464,0.02929,1.01562,29.04
$MAG,2563.631,-0.345,-0.285,-0.900,28.1
$IMU,2563.632,0.000,-0.183,-0.122,0.01367,0.03027,1.01562,29.04
$IMU,2563.634,-0.061,-0.244,-0.183,0.01367,0.02734,1.01757,28.97
$IMU,2563.637,-0.366,-0.122,-0.183,0.01611,0.02685,1.01855,28.97
$IMU,2563.639,-0.305,-0.427,-0.183,0.01806,0.02587,1.01562,28.97
$MAG,2563.641,-0.336,-0.274,-0.898,28.2
$IMU,2563.641,-0.427,-0.305,-0.244,0.02001,0.02832,1.01855,28.97
$IMU,2563.644,-0.488,-0.244,-0.183,0.01660,0.02490,1.02050,28.97
$IMU,2563.646,-0.488,-0.305,-0.244,0.01757,0.02539,1.01953,28.97
$IMU,2563.648,-0.427,-0.305,-0.244,0.01953,0.02636,1.02050,28.97
$MAG,2563.651,-0.340,-0.267,-0.900,28.2
$IMU,2563.651,-0.305,-0.427,-0.244,0.01953,0.02343,1.01855,28.97
$IMU,2563.653,-0.427,-0.122,-0.244,0.02050,0.02343,1.01953,28.97
$IMU,2563.655,-0.305,-0.183,-0.183,0.01855,0.02294,1.02099,28.97
$IMU,2563.658,-0.305,0.000,-0.183,0.01708,0.02197,1.01904,28.97
$IMU,2563.660,-0.244,-0.122,-0.122,0.02148,0.02294,1.02197,28.97
$MAG,2563.661,-0.339,-0.276,-0.900,28.1
$IMU,2563.662,-0.305,0.000,-0.122,0.01855,0.02343,1.02001,28.97
$IMU,2563.665,-0.427,0.061,-0.183,0.01708,0.02294,1.01660,28.97
$IMU,2563.667,-0.427,0.061,-0.183,0.01562,0.02783,1.01611,28.97
$IMU,2563.669,-0.427,0.122,-0.122,0.01904,0.02490,1.01416,28.97
$MAG,2563.671,-0.339,-0.273,-0.900,28.2
$IMU,2563.672,-0.366,0.061,-0.244,0.01464,0.02490,1.01367,28.96
$IMU,2563.674,-0.488,0.244,-0.244,0.01318,0.02441,1.00878,28.96
$IMU,2563.676,-0.671,0.610,-0.244,0.01660,0.02490,1.01074,28.96
$IMU,2563.679,-0.427,0.183,-0.183,0.01611,0.02099,1.00732,28.96
$MAG,2563.681,-0.340,-0.276,-0.909,28.1
$IMU,2563.681,-0.122,-0.366,-0.183,0.01562,0.02246,1.00878,28.96
$IMU,2563.683,-0.366,0.000,-0.183,0.01562,0.02050,1.00585,28.96
$IMU,2563.686,-0.366,0.000,-0.183,0.01611,0.02050,1.00732,28.96
$IMU,2563.688,-0.366,-0.061,-0.183,0.01904,0.02197,1.00585,28.96
$BARO,2563.689,86423.29,29.07
$IMU,2563.691,-0.305,-0.183,-0.183,0.01611,0.02050,1.00781,29.01
$MAG,2563.691,-0.340,-0.267,-0.900,28.1
$IMU,2563.693,-0.244,-0.122,-0.183,0.01806,0.01953,1.00830,29.01
$IMU,2563.695,-0.183,-0.061,-0.122,0.01611,0.02099,1.00878,29.01
$IMU,2563.698,-0.122,-0.183,-0.122,0.01464,0.02001,1.00585,29.01
$IMU,2563.700,-0.122,-0.122,-0.122,0.01513,0.02050,1.00781,29.01
$MAG,2563.701,-0.343,-0.280,-0.901,28.1
$IMU,2563.702,-0.061,-0.183,-0.122,0.01171,0.02148,1.01171,29.01
$IMU,2563.705,0.000,-0.244,-0.183,0.01367,0.02392,1.01269,29.01
$IMU,2563.707,0.000,-0.183,-0.122,0.01513,0.02246,1.01562,29.01
$IMU,2563.709,0.061,-0.305,-0.183,0.01562,0.02587,1.01660,28.96
$MAG,2563.711,-0.345,-0.265,-0.900,28.1
$IMU,2563.712,-0.061,-0.305,-0.122,0.01708,0.02441,1.01757,28.96
$IMU,2563.714,-0.061,-0.305,-0.122,0.01904,0.02246,1.02001,28.96
$IMU,2563.716,-0.061,-0.366,-0.183,0.01806,0.02197,1.02001,28.96
$IMU,2563.719,-0.061,-0.244,-0.122,0.01611,0.02441,1.01660,28.96
$IMU,2563.721,-0.061,-0.183,-0.183,0.01757,0.02587,1.01757,28.96
$MAG,2563.722,-0.339,-0.267,-0.901,28.2
$IMU,2563.723,-0.122,-0.122,-0.183,0.01611,0.02636,1.01708,28.96
$IMU,2563.726,-0.122,-0.122,-0.122,0.01757,0.02832,1.01953,28.96
$IMU,2563.728,-0.122,0.000,-0.183,0.01416,0.02343,1.01806,29.01
$IMU,2563.730,-0.061,-0.122,-0.122,0.01513,0.02880,1.01953,29.01
$MAG,2563.732,-0.345,-0.271,-0.901,28.2
$IMU,2563.733,-0.122,-0.183,-0.244,0.01708,0.02490,1.01660,29.01
$IMU,2563.735,-0.183,-0.183,-0.183,0.01513,0.02539,1.01757,29.01
$IMU,2563.737,-0.183,-0.183,-0.183,0.01611,0.02490,1.01953,29.01
$IMU,2563.740,-0.366,-0.061,-0.122,0.01757,0.02734,1.01953,29.01
$MAG,2563.742,-0.330,-0.276,-0.895,28.2
$IMU,2563.742,-0.427,-0.061,-0.183,0.01660,0.02587,1.02197,29.01
$IMU,2563.744,-0.427,-0.061,-0.122,0.01953,0.02490,1.01806,29.01
$IMU,2563.747,-0.366,-0.122,-0.183,0.01806,0.02587,1.01464,28.98
$IMU,2563.749,-0.427,0.061,-0.122,0.01562,0.02587,1.01318,28.98
$MAG,2563.752,-0.340,-0.271,-0.904,28.1
$IMU,2563.752,-0.366,0.000,-0.122,0.01513,0.02392,1.01708,28.98
$VBAT,2563.753,4.134
$IMU,2563.754,-0.366,0.000,-0.122,0.01513,0.02587,1.01220,28.98
$IMU,2563.756,-0.183,0.000,-0.183,0.01464,0.02636,1.01562,28.98
$IMU,2563.759,-0.183,-0.183,-0.183,0.01562,0.02343,1.01513,28.98
$IMU,2563.761,-0.244,-0.061,-0.183,0.01660,0.02587,1.01220,28.98
$MAG,2563.762,-0.340,-0.277,-0.906,28.1
$IMU,2563.763,-0.244,0.000,-0.183,0.01806,0.02490,1.01367,28.98
$IMU,2563.766,-0.244,0.000,-0.244,0.01757,0.02587,1.01123,28.99
$IMU,2563.768,-0.244,-0.061,-0.183,0.01708,0.02539,1.00976,28.99
$IMU,2563.770,-0.183,-0.122,-0.183,0.01904,0.02636,1.01220,28.99
$MAG,2563.772,-0.345,-0.276,-0.901,28.1
$IMU,2563.773,-0.305,-0.061,-0.122,0.01757,0.02294,1.01416,28.99
$IMU,2563.775,-0.305,-0.122,-0.183,0.01806,0.02490,1.01464,28.99
$IMU,2563.777,-0.366,0.061,-0.244,0.01660,0.02441,1.01416,28.99
$IMU,2563.780,-0.366,0.122,-0.244,0.01757,0.02392,1.01171,28.99
$MAG,2563.782,-0.339,-0.270,-0.906,28.1
$IMU,2563.782,-0.427,0.061,-0.183,0.01708,0.02490,1.00976,28.99
$IMU,2563.784,-0.305,-0.061,-0.183,0.01562,0.02246,1.00927,29.01
$IMU,2563.787,-0.366,-0.061,-0.183,0.01708,0.02441,1.00976,29.01
$IMU,2563.789,-0.366,-0.061,-0.183,0.01513,0.02294,1.00927,29.01
$BARO,2563.790,86432.16,29.07
$IMU,2563.791,-0.244,-0.183,-0.183,0.01416,0.02294,1.01025,29.01
$MAG,2563.792,-0.339,-0.276,-0.906,28.1
$IMU,2563.794,-0.122,-0.244,-0.122,0.01611,0.02001,1.01171,29.01
$IMU,2563.796,-0.061,-0.244,-0.183,0.01660,0.02197,1.01123,29.01
$IMU,2563.798,-0.122,-0.244,-0.122,0.01708,0.02294,1.01611,29.01
$IMU,2563.801,-0.183,-0.122,-0.183,0.01708,0.02539,1.01562,29.01
$MAG,2563.802,-0.336,-0.276,-0.901,28.1
$IMU,2563.803,-0.244,-0.122,-0.183,0.01660,0.02294,1.01708,28.97
$IMU,2563.805,-0.122,-0.244,-0.122,0.01464,0.02246,1.01708,28.97
$IMU,2563.808,0.000,-0.305,-0.183,0.01562,0.02392,1.01611,28.97
$IMU,2563.810,-0.061,-0.244,-0.183,0.01660,0.02246,1.01757,28.97
$MAG,2563.812,-0.349,-0.276,-0.909,28.1
$IMU,2563.813,-0.122,-0.244,-0.122,0.01464,0.02441,1.01513,28.97
$IMU,2563.815,-0.183,-0.122,-0.061,0.01562,0.02148,1.01708,28.97
$IMU,2563.817,-0.244,-0.122,-0.183,0.01708,0.02783,1.01611,28.97
$IMU,2563.820,-0.183,-0.122,-0.122,0.01806,0.02490,1.01513,28.97
$IMU,2563.822,-0.061,-0.183,-0.122,0.01513,0.02294,1.01806,28.96
$MAG,2563.823,-0.346,-0.274,-0.900,28.1
$IMU,2563.824,-0.122,-0.122,-0.122,0.01708,0.02441,1.01757,28.96
$IMU,2563.827,-0.244,-0.061,-0.122,0.01757,0.02587,1.01757,28.96
$IMU,2563.829,-0.305,0.183,-0.122,0.01904,0.02490,1.01611,28.96
$IMU,2563.831,-0.305,0.061,-0.183,0.01953,0.02294,1.01513,28.96
$MAG,2563.833,-0.339,-0.270,-0.903,28.0
$IMU,2563.834,-0.183,-0.061,-0.122,0.01611,0.02392,1.01757,28.96
$IMU,2563.836,-0.183,0.000,-0.061,0.01416,0.02392,1.01513,28.96
$IMU,2563.838,-0.305,-0.122,-0.122,0.01806,0.02441,1.01367,28.96
$IMU,2563.841,-0.488,0.122,-0.122,0.01708,0.02539,1.01269,28.97
$MAG,2563.843,-0.343,-0.274,-0.898,28.1
$IMU,2563.843,-0.183,-0.183,-0.183,0.01660,0.02783,1.01318,28.97
$IMU,2563.845,-0.305,0.000,-0.183,0.01513,0.02294,1.01171,28.97
$IMU,2563.848,-0.305,-0.122,-0.183,0.01611,0.02343,1.01367,28.97
$IMU,2563.850,-0.366,-0.122,-0.122,0.01562,0.02734,1.01220,28.97
$IMU,2563.852,-0.427,-0.061,-0.183,0.01660,0.02197,1.01171,28.97
$MAG,2563.853,-0.346,-0.271,-0.912,28.1
$IMU,2563.855,-0.488,-0.183,-0.122,0.01708,0.02343,1.01367,28.97
$IMU,2563.857,-0.427,-0.061,-0.122,0.01611,0.02294,1.01318,28.97
$IMU,2563.859,-0.305,-0.061,-0.183,0.01757,0.02343,1.01025,28.99
$IMU,2563.862,-0.244,-0.183,-0.183,0.01806,0.02392,1.01025,28.99
$MAG,2563.863,-0.333,-0.271,-0.906,28.1
$IMU,2563.864,-0.305,-0.061,-0.122,0.01464,0.02246,1.01171,28.99
$IMU,2563.866,-0.183,-0.061,-0.122,0.01855,0.02099,1.01562,28.99
$IMU,2563.869,-0.305,-0.061,-0.244,0.01611,0.02490,1.01611,28.99
$IMU,2563.871,-0.244,-0.183,-0.244,0.01611,0.02441,1.01562,28.99
$MAG,2563.873,-0.330,-0.261,-0.889,28.1
$IMU,2563.873,-0.183,-0.061,-0.122,0.01660,0.02539,1.01171,28.99
$IMU,2563.876,-0.183,-0.061,-0.122,0.01708,0.02392,1.00976,28.99
$IMU,2563.878,-0.122,0.000,-0.183,0.01611,0.02246,1.01464,29.01
$IMU,2563.881,-0.061,0.000,-0.122,0.01562,0.02294,1.01367,29.01
$MAG,2563.883,-0.334,-0.270,-0.897,28.1
$IMU,2563.883,-0.061,-0.183,-0.183,0.01708,0.02539,1.01318,29.01
$IMU,2563.885,-0.122,-0.122,-0.122,0.01904,0.02246,1.01513,29.01
$IMU,2563.888,-0.122,-0.122,-0.183,0.01904,0.02148,1.01464,29.01
$IMU,2563.890,-0.183,-0.122,-0.183,0.01611,0.02294,1.01513,29.01
$BARO,2563.891,86433.04,29.07
$IMU,2563.892,-0.244,0.000,-0.244,0.01611,0.02441,1.01513,29.01
$MAG,2563.893,-0.337,-0.274,-0.904,28.1
$IMU,2563.895,-0.244,-0.122,-0.122,0.01513,0.02294,1.01464,29.01
$IMU,2563.897,-0.244,-0.244,-0.183,0.01416,0.02343,1.01562,28.98
$IMU,2563.899,-0.061,-0.244,-0.244,0.01464,0.02441,1.01757,28.98
$IMU,2563.902,-0.183,-0.122,-0.244,0.01513,0.02490,1.01464,28.98
$MAG,2563.903,-0.334,-0.274,-0.897,28.0
$IMU,2563.904,-0.244,-0.061,-0.183,0.01806,0.02392,1.01464,28.98
$IMU,2563.906,-0.244,-0.183,-0.183,0.01416,0.02441,1.01562,28.98
$IMU,2563.909,-0.305,-0.183,-0.183,0.01611,0.02441,1.01513,28.98
$IMU,2563.911,-0.244,-0.183,-0.183,0.01513,0.02294,1.01464,28.98
$MAG,2563.913,-0.343,-0.282,-0.895,28.1
$IMU,2563.913,-0.305,-0.061,-0.183,0.01513,0.02392,1.01611,28.98
$IMU,2563.916,-0.305,-0.061,-0.183,0.01611,0.02294,1.01757,29.00
$IMU,2563.918,-0.305,-0.122,-0.183,0.02050,0.02246,1.01367,29.00
$IMU,2563.920,-0.244,-0.122,-0.122,0.01708,0.02294,1.01318,29.00
$IMU,2563.923,-0.244,-0.061,-0.183,0.01611,0.02392,1.01318,29.00
$MAG,2563.924,-0.348,-0.273,-0.901,28.2
$IMU,2563.925,-0.244,-0.244,-0.122,0.01708,0.02099,1.01513,29.00
$IMU,2563.927,-0.244,-0.061,-0.183,0.01416,0.02441,1.01660,29.00
$IMU,2563.930,-0.366,0.061,-0.183,0.01562,0.02392,1.01708,29.00
$IMU,2563.932,-0.183,-0.122,-0.183,0.01708,0.02148,1.01318,29.00
$MAG,2563.934,-0.348,-0.274,-0.900,28.1
$IMU,2563.934,-0.244,0.000,-0.122,0.01562,0.02197,1.01220,29.00
$IMU,2563.937,-0.122,-0.183,-0.122,0.01464,0.02246,1.01318,29.00
$IMU,2563.939,-0.122,-0.061,-0.122,0.01806,0.02343,1.01269,29.00
$IMU,2563.942,-0.244,0.000,-0.061,0.01562,0.02490,1.01318,29.00
$MAG,2563.944,-0.339,-0.270,-0.894,28.2
$IMU,2563.944,-0.305,0.061,-0.183,0.01416,0.02392,1.01464,29.00
$IMU,2563.946,-0.244,-0.122,-0.061,0.01464,0.02343,1.01123,29.00
$IMU,2563.949,-0.183,-0.244,-0.122,0.01660,0.02441,1.01220,29.00
$IMU,2563.951,-0.366,-0.061,-0.183,0.01708,0.02343,1.01269,29.00
$IMU,2563.953,-0.305,-0.061,-0.183,0.01367,0.02294,1.01367,28.98
$MAG,2563.954,-0.336,-0.271,-0.907,28.2
$IMU,2563.956,-0.305,0.000,-0.183,0.01220,0.02539,1.01269,28.98
$IMU,2563.958,-0.305,-0.122,-0.183,0.01855,0.02441,1.01611,28.98
$IMU,2563.960,-0.244,-0.183,-0.183,0.01757,0.02197,1.01220,28.98
$IMU,2563.963,-0.244,-0.122,-0.122,0.01708,0.02343,1.01464,28.98
$MAG,2563.964,-0.342,-0.276,-0.903,28.1
$IMU,2563.965,-0.305,-0.061,-0.183,0.01904,0.02001,1.01123,28.98
$IMU,2563.967,-0.305,-0.122,-0.183,0.01757,0.01806,1.01318,28.98
$IMU,2563.970,-0.305,-0.183,-0.183,0.01611,0.02197,1.01464,28.98
$IMU,2563.972,-0.305,-0.183,-0.244,0.01611,0.02246,1.01464,29.00
$MAG,2563.974,-0.336,-0.273,-0.897,28.2
$IMU,2563.974,-0.244,-0.061,-0.122,0.01855,0.01953,1.01464,29.00
$IMU,2563.977,-0.183,-0.122,-0.122,0.01660,0.02441,1.01513,29.00
$IMU,2563.979,-0.244,-0.122,-0.122,0.02001,0.02343,1.01611,29.00
$IMU,2563.981,-0.183,-0.122,-0.183,0.01708,0.02050,1.01367,29.00
$MAG,2563.984,-0.334,-0.271,-0.901,28.1
$IMU,2563.984,-0.244,0.000,-0.183,0.01953,0.02246,1.01708,29.00
$IMU,2563.986,-0.122,-0.061,-0.183,0.01953,0.02392,1.01416,29.00
$IMU,2563.988,-0.183,0.000,-0.122,0.01708,0.02050,1.01464,29.00
$IMU,2563.991,-0.183,-0.061,-0.122,0.01611,0.02392,1.01757,29.01
$BARO,2563.993,86424.31,29.08
$IMU,2563.993,-0.183,-0.061,-0.183,0.01757,0.02441,1.01660,29.01
$MAG,2563.994,-0.336,-0.270,-0.907,28.1
$IMU,2563.995,-0.122,-0.061,-0.122,0.01708,0.02587,1.01513,29.01
$IMU,2563.998,-0.183,-0.061,-0.122,0.01855,0.02441,1.01464,29.01
$IMU,2564.000,-0.244,-0.122,-0.244,0.01806,0.02587,1.01416,29.01
$IMU,2564.003,-0.183,-0.122,-0.122,0.01611,0.02294,1.01611,29.01
$MAG,2564.004,-0.334,-0.268,-0.900,28.1
$IMU,2564.005,-0.183,0.000,-0.122,0.01611,0.02392,1.01416,29.01
$IMU,2564.007,-0.366,0.061,-0.183,0.01513,0.02246,1.01416,29.01
$IMU,2564.010,-0.305,0.000,-0.122,0.01660,0.02441,1.01611,29.03
$IMU,2564.012,-0.305,-0.183,-0.183,0.01757,0.02148,1.01708,29.03
$MAG,2564.014,-0.345,-0.279,-0.897,28.1
$IMU,2564.014,-0.305,-0.122,-0.122,0.01708,0.02783,1.01562,29.03
$IMU,2564.017,-0.305,-0.122,-0.305,0.01953,0.02490,1.01562,29.03
$IMU,2564.019,-0.366,0.061,-0.183,0.01562,0.02490,1.01367,29.03
$IMU,2564.021,-0.366,-0.061,-0.122,0.01513,0.02148,1.01269,29.03
$IMU,2564.024,-0.244,-0.244,-0.122,0.01464,0.02490,1.01464,29.03
$MAG,2564.025,-0.336,-0.271,-0.901,28.2
$IMU,2564.026,-0.244,-0.122,-0.122,0.01660,0.02343,1.01562,29.03
$IMU,2564.028,-0.244,-0.183,-0.183,0.01562,0.02246,1.01367,29.02
$IMU,2564.031,-0.183,-0.183,-0.183,0.01708,0.02001,1.01464,29.02
$IMU,2564.033,-0.183,-0.244,-0.122,0.01367,0.02294,1.01367,29.02
$MAG,2564.035,-0.339,-0.268,-0.897,28.2
$IMU,2564.035,-0.305,0.000,-0.244,0.01855,0.02587,1.01318,29.02
$IMU,2564.038,-0.061,-0.305,-0.183,0.01464,0.02490,1.01611,29.02
$IMU,2564.040,-0.183,-0.061,-0.244,0.01464,0.02539,1.01318,29.02
$HUM,2564.042,37.2,29.5
$IMU,2564.042,-0.122,-0.061,-0.122,0.01367,0.02783,1.01660,29.02
$MAG,2564.045,-0.331,-0.271,-0.900,28.1
$IMU,2564.045,-0.183,-0.122,-0.183,0.01708,0.02490,1.01367,29.02
$IMU,2564.047,-0.244,0.122,-0.122,0.01708,0.02099,1.01269,29.03
$IMU,2564.049,-0.183,-0.061,-0.183,0.02001,0.02490,1.01513,29.03
$IMU,2564.052,-0.244,-0.061,-0.183,0.01806,0.02783,1.01416,29.03
$IMU,2564.054,-0.244,-0.122,-0.183,0.01855,0.02587,1.01318,29.03
$MAG,2564.055,-0.336,-0.267,-0.900,28.2
$IMU,2564.056,-0.244,0.061,-0.183,0.01611,0.02490,1.01269,29.03
$IMU,2564.059,-0.366,-0.061,-0.122,0.01904,0.02490,1.01123,29.03
$IMU,2564.061,-0.305,0.000,-0.061,0.01220,0.02539,1.01123,29.03
$IMU,2564.064,-0.305,-0.183,-0.244,0.01269,0.02197,1.01318,29.03
$MAG,2564.065,-0.346,-0.271,-0.898,28.2
$IMU,2564.066,-0.305,-0.244,-0.183,0.01513,0.02539,1.01464,29.00
$IMU,2564.068,-0.305,-0.122,-0.183,0.01611,0.02392,1.01416,29.00
$IMU,2564.071,-0.305,-0.244,-0.122,0.01806,0.02050,1.01367,29.00
$IMU,2564.073,-0.305,-0.183,-0.183,0.01806,0.02294,1.01611,29.00
$MAG,2564.075,-0.334,-0.288,-0.904,28.1
$IMU,2564.075,-0.305,-0.061,-0.183,0.01953,0.02490,1.01562,29.00
$IMU,2564.078,-0.244,-0.061,-0.183,0.01660,0.02294,1.01367,29.00
$IMU,2564.080,-0.183,-0.122,-0.183,0.01562,0.02294,1.01464,29.00
$IMU,2564.082,-0.244,0.000,-0.122,0.02050,0.02392,1.01708,29.00
$MAG,2564.085,-0.330,-0.274,-0.898,28.2
$IMU,2564.085,-0.183,0.061,-0.061,0.02050,0.02294,1.01611,29.00
$IMU,2564.087,-0.183,-0.122,-0.122,0.02001,0.02197,1.01757,29.00
$IMU,2564.089,-0.183,-0.061,-0.183,0.01513,0.02490,1.01464,29.00
$IMU,2564.092,-0.183,0.122,-0.244,0.02050,0.02246,1.01367,29.00
$BARO,2564.094,86437.74,29.08
$IMU,2564.094,-0.183,0.061,-0.183,0.01953,0.02392,1.01611,29.00
$MAG,2564.095,-0.343,-0.267,-0.897,28.1
$IMU,2564.096,-0.183,0.000,-0.183,0.01855,0.02685,1.01562,29.00
$IMU,2564.099,-0.183,-0.061,-0.122,0.01416,0.02441,1.01611,29.00
$IMU,2564.101,-0.244,0.000,-0.183,0.01367,0.02539,1.01513,29.00
$IMU,2564.103,-0.305,0.122,-0.183,0.01464,0.02587,1.01220,29.05
$MAG,2564.105,-0.336,-0.276,-0.903,28.1
$IMU,2564.106,-0.305,0.061,-0.183,0.01513,0.02636,1.01171,29.05
$IMU,2564.108,-0.305,-0.183,-0.244,0.01806,0.02490,1.01367,29.05
$IMU,2564.110,-0.305,-0.183,-0.183,0.01757,0.02783,1.01269,29.05
$IMU,2564.113,-0.305,-0.122,-0.122,0.01367,0.02441,1.01464,29.05
$MAG,2564.115,-0.345,-0.277,-0.907,28.3
$IMU,2564.115,-0.366,-0.061,-0.183,0.01464,0.02294,1.01367,29.05
$IMU,2564.117,-0.366,-0.061,-0.183,0.01562,0.02246,1.01464,29.05
$IMU,2564.120,-0.305,-0.122,-0.183,0.01611,0.02197,1.01464,29.05
$IMU,2564.122,-0.183,-0.366,-0.183,0.01220,0.02197,1.01171,29.04
$MAG,2564.125,-0.328,-0.273,-0.898,28.1
$IMU,2564.125,-0.183,-0.366,-0.244,0.01611,0.02392,1.00976,29.04
$IMU,2564.127,-0.366,0.000,-0.183,0.01513,0.02490,1.01220,29.04
$IMU,2564.129,-0.244,-0.183,-0.183,0.01757,0.02490,1.01318,29.04
$IMU,2564.132,-0.244,-0.183,-0.244,0.01708,0.02343,1.01220,29.04
$IMU,2564.134,-0.183,-0.244,-0.183,0.01953,0.02148,1.01318,29.04
$MAG,2564.136,-0.345,-0.283,-0.903,28.1
$IMU,2564.136,-0.183,-0.183,-0.122,0.02099,0.02148,1.01416,29.04
$IMU,2564.139,-0.183,-0.122,-0.183,0.01708,0.02392,1.01367,29.04
$IMU,2564.141,-0.305,0.061,-0.183,0.01660,0.02246,1.01513,29.03
$IMU,2564.143,-0.244,0.122,-0.122,0.01904,0.02490,1.01611,29.03
$MAG,2564.146,-0.346,-0.274,-0.898,28.1
$IMU,2564.146,-0.183,-0.183,-0.122,0.01660,0.02539,1.01513,29.03
$IMU,2564.148,-0.061,-0.183,-0.183,0.01708,0.02636,1.01220,29.03
$IMU,2564.150,-0.122,-0.122,-0.122,0.01318,0.02246,1.01513,29.03
$IMU,2564.153,-0.183,0.000,-0.122,0.01757,0.02539,1.01220,29.03
$IMU,2564.155,-0.244,0.000,-0.183,0.01855,0.02392,1.01416,29.03
$MAG,2564.156,-0.334,-0.273,-0.907,28.2
$IMU,2564.157,-0.244,-0.061,-0.244,0.01806,0.02539,1.01562,29.03
$IMU,2564.160,-0.183,-0.183,-0.183,0.01660,0.02197,1.01318,28.99
$IMU,2564.162,-0.061,-0.427,-0.122,0.01464,0.02246,1.01464,28.99
$IMU,2564.164,-0.305,-0.122,-0.183,0.01269,0.02392,1.01416,28.99
$MAG,2564.166,-0.337,-0.276,-0.901,28.2
$IMU,2564.167,-0.305,-0.122,-0.122,0.01611,0.01953,1.01562,28.99
$IMU,2564.169,-0.305,-0.061,-0.183,0.01513,0.02441,1.01611,28.99
$IMU,2564.171,-0.305,-0.244,-0.061,0.01416,0.02294,1.01367,28.99
$IMU,2564.174,-0.183,-0.366,-0.122,0.01464,0.01904,1.01660,28.99
$MAG,2564.176,-0.337,-0.274,-0.909,28.1
$IMU,2564.176,-0.305,-0.183,-0.183,0.01757,0.02099,1.01757,28.99
$IMU,2564.178,-0.244,-0.244,-0.244,0.01269,0.02441,1.01611,29.01
$IMU,2564.181,-0.305,-0.061,-0.122,0.01806,0.02148,1.01513,29.01
$IMU,2564.183,-0.244,-0.122,-0.122,0.01708,0.02490,1.01660,29.01
$MAG,2564.186,-0.337,-0.277,-0.900,28.2
$IMU,2564.186,-0.183,-0.061,-0.183,0.01513,0.02099,1.01757,29.01
$IMU,2564.188,-0.244,-0.183,-0.122,0.01562,0.02246,1.01757,29.01
$IMU,2564.190,-0.122,-0.061,-0.183,0.01318,0.02294,1.01464,29.01
$IMU,2564.193,-0.244,0.000,-0.183,0.01416,0.02441,1.01562,29.01
$IMU,2564.195,-0.244,-0.061,-0.061,0.01416,0.02636,1.01416,29.01
$BARO,2564.196,86430.36,29.08
$MAG,2564.196,-0.328,-0.273,-0.897,28.2
$IMU,2564.197,-0.183,-0.061,-0.122,0.01660,0.02539,1.01171,28.99
$IMU,2564.200,-0.183,-0.061,-0.244,0.01611,0.02539,1.01318,28.99
$IMU,2564.202,-0.183,0.000,-0.122,0.01220,0.02343,1.01074,28.99
$IMU,2564.204,-0.305,0.122,-0.183,0.01562,0.02392,1.01318,28.99
$MAG,2564.206,-0.342,-0.271,-0.904,28.1
$IMU,2564.207,-0.305,0.061,-0.244,0.01806,0.02343,1.01123,28.99
$IMU,2564.209,-0.366,0.183,-0.183,0.01708,0.02685,1.01171,28.99
$IMU,2564.211,-0.244,-0.061,-0.122,0.01660,0.02441,1.01269,28.99
$IMU,2564.214,-0.183,-0.244,-0.122,0.01660,0.02441,1.01367,28.99
$MAG,2564.216,-0.337,-0.270,-0.904,28.2
$IMU,2564.216,-0.244,-0.061,-0.183,0.01562,0.02539,1.01123,28.97
$IMU,2564.218,-0.366,-0.122,-0.122,0.01416,0.02539,1.01269,28.97
$IMU,2564.221,-0.305,-0.122,-0.122,0.01611,0.02001,1.01367,28.97
$IMU,2564.223,-0.183,-0.244,-0.122,0.01757,0.02343,1.01220,28.97
$IMU,2564.225,-0.305,-0.305,-0.122,0.01757,0.02392,1.01416,28.97
$MAG,2564.227,-0.339,-0.276,-0.900,28.1
$IMU,2564.228,-0.244,-0.366,-0.183,0.01855,0.02148,1.01367,28.97
$IMU,2564.230,-0.305,-0.244,-0.122,0.01855,0.02050,1.01416,28.97
$IMU,2564.232,-0.305,-0.244,-0.183,0.01513,0.02343,1.01318,28.97
$IMU,2564.235,-0.183,-0.244,-0.122,0.01904,0.02441,1.01562,28.99
$MAG,2564.237,-0.342,-0.270,-0.909,28.1
$IMU,2564.237,-0.183,-0.183,-0.122,0.02001,0.02099,1.01513,28.99
$IMU,2564.239,-0.183,-0.244,-0.183,0.02197,0.02441,1.01513,28.99
$IMU,2564.242,-0.183,-0.183,-0.122,0.01806,0.02539,1.01708,28.99
$IMU,2564.244,-0.122,-0.244,-0.122,0.01806,0.02197,1.01416,28.99
$MAG,2564.247,-0.330,-0.271,-0.907,28.1
$IMU,2564.247,0.000,-0.427,-0.183,0.01855,0.02392,1.01464,28.99
$IMU,2564.249,-0.061,-0.061,-0.122,0.01904,0.02539,1.01513,28.99
$IMU,2564.251,-0.061,-0.122,-0.122,0.01513,0.02246,1.01513,28.99
$IMU,2564.254,-0.122,-0.061,-0.122,0.01757,0.02392,1.01562,29.05
$IMU,2564.256,-0.183,0.061,-0.122,0.01611,0.02734,1.01416,29.05
$MAG,2564.257,-0.334,-0.277,-0.892,28.0
$IMU,2564.258,-0.244,0.000,-0.183,0.01513,0.02734,1.01464,29.05
$IMU,2564.261,-0.244,-0.061,-0.244,0.01757,0.02343,1.01367,29.05
$IMU,2564.263,-0.061,-0.244,-0.183,0.01757,0.02392,1.01269,29.05
$IMU,2564.265,-0.122,-0.305,-0.183,0.01757,0.02490,1.01269,29.05
$MAG,2564.267,-0.334,-0.274,-0.897,28.2
$IMU,2564.268,-0.305,-0.122,-0.183,0.01464,0.02197,1.01318,29.05
$IMU,2564.270,-0.366,0.122,-0.183,0.01318,0.02441,1.01611,29.05
$IMU,2564.272,-0.427,-0.122,-0.183,0.01367,0.02343,1.01513,29.01
$IMU,2564.275,-0.305,-0.183,-0.122,0.01855,0.02197,1.01611,29.01
$MAG,2564.277,-0.339,-0.274,-0.898,28.1
$IMU,2564.277,-0.366,-0.061,-0.244,0.01611,0.02490,1.01464,29.01
$IMU,2564.279,-0.305,-0.122,-0.183,0.01513,0.02587,1.01318,29.01
$IMU,2564.282,-0.427,0.061,-0.122,0.01904,0.02148,1.01513,29.01
$IMU,2564.284,-0.427,0.061,-0.244,0.01611,0.02148,1.01269,29.01
$IMU,2564.286,-0.305,-0.183,-0.244,0.01855,0.02490,1.01513,29.01
$MAG,2564.287,-0.334,-0.277,-0.906,28.2
$IMU,2564.289,-0.244,-0.244,-0.183,0.01660,0.02294,1.01513,29.01
$IMU,2564.291,-0.183,-0.244,-0.183,0.01513,0.02441,1.01416,29.00
$IMU,2564.293,-0.244,-0.122,-0.244,0.01806,0.02392,1.01416,29.00
$IMU,2564.296,-0.244,-0.061,-0.183,0.01806,0.02636,1.01708,29.00
$BARO,2564.297,86432.04,29.09
$MAG,2564.297,-0.336,-0.280,-0.910,28.2
$IMU,2564.298,-0.244,-0.122,-0.122,0.01562,0.02441,1.01464,29.00
$IMU,2564.300,-0.122,-0.183,-0.122,0.01806,0.02441,1.01708,29.00
$IMU,2564.303,-0.122,-0.305,-0.122,0.01855,0.02343,1.01855,29.00
$IMU,2564.305,-0.244,-0.183,-0.061,0.02197,0.02441,1.01806,29.00
$MAG,2564.307,-0.343,-0.268,-0.895,28.2
$IMU,2564.307,-0.122,-0.183,-0.183,0.01660,0.02392,1.01562,29.00
$IMU,2564.310,-0.244,0.000,-0.244,0.01757,0.02587,1.01318,29.02
$IMU,2564.312,-0.122,-0.122,-0.183,0.01904,0.02343,1.01220,29.02
$IMU,2564.315,-0.122,-0.244,-0.122,0.02001,0.02636,1.01171,29.02
$MAG,2564.317,-0.330,-0.270,-0.904,28.1
$IMU,2564.317,-0.244,0.000,-0.122,0.01757,0.02539,1.01318,29.02
$IMU,2564.319,-0.244,0.000,-0.122,0.01708,0.02246,1.01318,29.02
$IMU,2564.322,-0.366,0.000,-0.122,0.01855,0.02539,1.01318,29.02
$IMU,2564.324,-0.305,-0.061,-0.122,0.01904,0.02539,1.01367,29.02
$IMU,2564.326,-0.305,-0.061,-0.183,0.01953,0.02197,1.01269,29.02
$MAG,2564.327,-0.343,-0.268,-0.904,28.2
$IMU,2564.329,-0.244,-0.122,-0.183,0.01806,0.02294,1.01416,29.00
$IMU,2564.331,-0.244,-0.244,-0.183,0.01464,0.02197,1.01464,29.00
$IMU,2564.333,-0.366,0.000,-0.122,0.01611,0.02001,1.01367,29.00
$IMU,2564.336,-0.305,0.000,-0.122,0.01757,0.02294,1.01708,29.00
$MAG,2564.338,-0.334,-0.276,-0.898,28.2
$IMU,2564.338,-0.244,-0.122,-0.244,0.01806,0.02490,1.01318,29.00
$IMU,2564.340,-0.122,-0.244,-0.183,0.01367,0.02490,1.01318,29.00
$IMU,2564.343,-0.122,-0.244,-0.183,0.01757,0.02392,1.01464,29.00
$IMU,2564.345,-0.244,0.000,-0.183,0.01464,0.02539,1.01708,29.00
$IMU,2564.347,-0.305,0.000,-0.122,0.01757,0.02490,1.01562,29.03
$MAG,2564.348,-0.337,-0.276,-0.898,28.2
$IMU,2564.350,-0.244,0.000,-0.061,0.01904,0.02197,1.01464,29.03
$IMU,2564.352,-0.061,-0.366,-0.183,0.01708,0.02441,1.01464,29.03
$IMU,2564.354,-0.122,-0.183,-0.183,0.01806,0.02490,1.01855,29.03
$IMU,2564.357,-0.244,-0.061,-0.183,0.01708,0.02539,1.01660,29.03
$MAG,2564.358,-0.337,-0.280,-0.901,28.2
$IMU,2564.359,-0.244,-0.122,-0.244,0.01806,0.02636,1.01708,29.03
$IMU,2564.361,-0.244,-0.122,-0.122,0.01953,0.02685,1.01416,29.03
$IMU,2564.364,-0.061,-0.366,-0.122,0.01757,0.02099,1.01416,29.03
$IMU,2564.366,-0.122,-0.183,-0.183,0.01806,0.02343,1.01318,29.04
$MAG,2564.368,-0.336,-0.273,-0.900,28.1
$IMU,2564.368,-0.244,-0.061,-0.244,0.01660,0.02490,1.01513,29.04
$IMU,2564.371,-0.244,-0.061,-0.183,0.01660,0.02587,1.01513,29.04
$IMU,2564.373,-0.305,0.061,-0.183,0.01513,0.02587,1.01416,29.04
$IMU,2564.376,-0.305,-0.061,-0.244,0.01660,0.02441,1.01464,29.04
$MAG,2564.378,-0.342,-0.274,-0.901,28.5
$IMU,2564.378,-0.244,-0.061,-0.244,0.01318,0.02294,1.01269,29.04
$IMU,2564.380,-0.305,-0.061,-0.122,0.01171,0.02246,1.01367,29.04
$IMU,2564.383,-0.488,0.061,-0.122,0.01171,0.02294,1.01220,29.04
$IMU,2564.385,-0.366,0.122,-0.122,0.01074,0.02343,1.01660,29.01
$IMU,2564.387,-0.366,-0.061,-0.183,0.01318,0.02197,1.01464,29.01
$MAG,2564.388,-0.342,-0.274,-0.904,28.1
$IMU,2564.390,-0.366,0.061,-0.122,0.01464,0.01904,1.01416,29.01
$IMU,2564.392,-0.244,-0.122,-0.122,0.01855,0.02099,1.01416,29.01
$IMU,2564.394,-0.305,-0.122,-0.183,0.01855,0.02246,1.01513,29.01
$IMU,2564.397,-0.183,-0.061,-0.183,0.01708,0.02197,1.01660,29.01
$MAG,2564.398,-0.334,-0.276,-0.900,28.2
$BARO,2564.399,86435.33,29.08
$IMU,2564.399,-0.244,-0.061,-0.122,0.01855,0.02246,1.01562,29.01
$IMU,2564.401,-0.244,-0.122,-0.122,0.01757,0.02490,1.01220,29.01
$IMU,2564.404,-0.183,-0.061,-0.122,0.01757,0.02343,1.01416,28.98
$IMU,2564.406,-0.061,-0.183,-0.122,0.01855,0.02539,1.01513,28.98
$MAG,2564.408,-0.336,-0.276,-0.900,28.1
$IMU,2564.408,-0.122,-0.061,-0.183,0.01806,0.02490,1.01708,28.98
$IMU,2564.411,-0.183,-0.061,-0.122,0.02001,0.02636,1.01562,28.98
$IMU,2564.413,-0.244,0.000,-0.183,0.01806,0.02343,1.01611,28.98
$IMU,2564.415,-0.244,-0.061,-0.183,0.01513,0.02343,1.01757,28.98
$MAG,2564.418,-0.331,-0.271,-0.901,28.2
$IMU,2564.418,-0.244,-0.061,-0.183,0.01708,0.02636,1.01513,28.98
$IMU,2564.420,-0.244,-0.061,-0.183,0.01562,0.02343,1.01513,28.98
$IMU,2564.422,-0.244,-0.183,-0.183,0.01855,0.02685,1.01611,29.02
$IMU,2564.425,-0.366,0.000,-0.122,0.01611,0.02539,1.01318,29.02
$IMU,2564.427,-0.427,0.061,-0.183,0.01562,0.02539,1.01269,29.02
$MAG,2564.428,-0.343,-0.276,-0.900,28.2
$IMU,2564.429,-0.366,-0.183,-0.183,0.01416,0.02490,1.01220,29.02
$IMU,2564.432,-0.366,0.000,-0.183,0.01269,0.02539,1.01269,29.02
$IMU,2564.434,-0.244,-0.305,-0.244,0.01562,0.02197,1.01318,29.02
$IMU,2564.437,-0.305,-0.244,-0.183,0.01660,0.02539,1.01269,29.02
$IMU,2564.439,-0.244,-0.183,-0.183,0.01708,0.02148,1.01318,29.02
$MAG,2564.439,-0.336,-0.277,-0.904,28.2
$IMU,2564.441,-0.427,0.122,-0.061,0.01611,0.02490,1.01464,29.02
$IMU,2564.444,-0.244,-0.244,-0.244,0.01757,0.02294,1.01464,29.02
$IMU,2564.446,-0.122,-0.244,-0.183,0.02001,0.02294,1.01416,29.02
$IMU,2564.448,0.061,-0.488,-0.244,0.01708,0.02392,1.01318,29.02
$MAG,2564.449,-0.336,-0.286,-0.907,28.2
$IMU,2564.451,-0.183,-0.122,-0.244,0.01757,0.02246,1.01220,29.02
$IMU,2564.453,-0.244,-0.061,-0.244,0.01611,0.02441,1.01416,29.02
$IMU,2564.455,-0.244,-0.061,-0.122,0.01562,0.02490,1.01660,29.02
$IMU,2564.458,-0.122,-0.244,-0.122,0.01513,0.02880,1.01513,29.02
$MAG,2564.459,-0.340,-0.267,-0.898,28.1
$IMU,2564.460,-0.183,-0.122,-0.183,0.01855,0.02685,1.01806,29.03
$IMU,2564.462,-0.183,-0.061,-0.183,0.01904,0.02734,1.01464,29.03
$IMU,2564.465,-0.305,0.000,-0.183,0.01953,0.02490,1.01367,29.03
$IMU,2564.467,-0.183,-0.061,-0.122,0.01611,0.02294,1.01367,29.03
$MAG,2564.469,-0.334,-0.276,-0.900,28.2
$IMU,2564.469,-0.244,-0.122,-0.183,0.01855,0.02197,1.01611,29.03
$IMU,2564.472,-0.305,0.000,-0.183,0.01855,0.02294,1.01416,29.03
$IMU,2564.474,-0.244,-0.061,-0.122,0.01513,0.02246,1.01367,29.03
$IMU,2564.476,-0.305,0.061,-0.122,0.01611,0.02490,1.01708,29.03
$MAG,2564.479,-0.334,-0.277,-0.897,28.1
$IMU,2564.479,-0.305,-0.061,-0.183,0.01562,0.02539,1.01660,29.00
$IMU,2564.481,-0.366,0.000,-0.122,0.01660,0.02343,1.01318,29.00
$IMU,2564.483,-0.366,-0.061,-0.244,0.01708,0.02441,1.01171,29.00
$IMU,2564.486,-0.305,-0.061,-0.183,0.01953,0.02539,1.01513,29.00
$IMU,2564.488,-0.427,0.061,-0.122,0.01806,0.02294,1.01367,29.00
$MAG,2564.489,-0.339,-0.279,-0.900,28.1
$IMU,2564.490,-0.305,-0.183,-0.122,0.01660,0.02294,1.01416,29.00
$IMU,2564.493,-0.305,-0.244,-0.122,0.01611,0.02832,1.01611,29.00
$IMU,2564.495,-0.305,-0.183,-0.122,0.01757,0.02197,1.01562,29.00
$IMU,2564.498,-0.244,-0.183,-0.183,0.02001,0.02343,1.01416,29.04
$MAG,2564.499,-0.343,-0.279,-0.898,28.1
$BARO,2564.500,86432.92,29.09
$IMU,2564.500,-0.244,-0.183,-0.183,0.01757,0.02587,1.01318,29.04
$IMU,2564.502,-0.305,-0.122,-0.183,0.01611,0.02392,1.01416,29.04
$IMU,2564.505,-0.183,-0.122,-0.122,0.01416,0.02197,1.01464,29.04
