$FLYS,1
$VAR,FIRMWARE_VER,v2024.12.30
$VAR,DEVICE_ID,0017003b3253501720373657
$VAR,SESSION_ID,1366e96a689df9a8fc705b54
$COL,BARO,time,pressure,temperature
$UNIT,BARO,s,Pa,deg C
$COL,HUM,time,humidity,temperature
$UNIT,HUM,s,percent,deg C
$COL,MAG,time,x,y,z,temperature
$UNIT,MAG,s,gauss,gauss,gauss,deg C
$COL,IMU,time,wx,wy,wz,ax,ay,az,temperature
$UNIT,IMU,s,deg/s,deg/s,deg/s,g,g,g,deg C
$COL,TIME,time,tow,week
$UNIT,TIME,s,s,
$COL,VBAT,time,voltage
$UNIT,VBAT,s,volt
$DATA
$IMU,5603.115,4.760,-28.808,-34.179,0.01611,-0.01513,0.82861,26.35
$MAG,2580.030,-0.337,-0.280,-0.894,28.5
$IMU,5603.117,-13.305,-17.883,-11.413,0.01513,-0.02099,1.01074,26.35
$IMU,5603.119,2.502,4.211,1.464,0.01464,-0.01806,1.01074,26.35
$IMU,5603.122,0.854,-1.953,2.075,0.01611,-0.01904,1.01074,26.35
$IMU,5603.124,0.549,-4.272,-6.530,0.01416,-0.01855,1.01171,26.35
$IMU,5603.126,5.493,2.014,-0.854,0.01611,-0.02343,1.01220,26.35
$IMU,5603.129,1.037,10.009,11.047,0.01611,-0.02294,1.01025,26.35
$IMU,5603.131,-3.723,18.066,22.705,0.01269,-0.02050,1.01123,26.95
$IMU,5603.133,3.845,4.821,1.525,0.01611,-0.02246,1.01220,26.95
$IMU,5603.136,11.169,-7.751,-16.662,0.01220,-0.02148,1.00976,26.95
$IMU,5603.138,10.864,-7.324,-16.662,0.01269,-0.02050,1.00976,26.95
$IMU,5603.141,10.498,-6.835,-16.296,0.01318,-0.01855,1.01074,26.95
$IMU,5603.143,10.070,-6.225,-15.502,0.01611,-0.02099,1.01171,26.95
$IMU,5603.145,9.704,-5.798,-15.625,0.01562,-0.02197,1.00878,26.95
$IMU,5603.148,9.399,-5.249,-15.197,0.01611,-0.02343,1.01171,26.95
$IMU,5603.150,8.972,-4.699,-14.465,0.01513,-0.02099,1.01171,26.99
$IMU,5603.152,7.263,-3.662,-12.573,0.01269,-0.02001,1.01416,26.99
$IMU,5603.155,0.976,-0.610,-2.380,0.01513,-0.01855,1.01123,26.99
$IMU,5603.157,-0.305,-0.061,0.000,0.01123,-0.01904,1.01074,26.99
$IMU,5603.159,-0.488,-0.122,-0.122,0.01220,-0.01953,1.01025,26.99
$IMU,5603.162,-0.488,0.122,0.244,0.00683,-0.00244,1.01367,26.99
$IMU,5603.164,-0.366,0.061,2.502,-0.01074,0.05908,1.01855,26.99
$IMU,5603.166,-0.366,-0.061,5.981,0.01953,0.01513,1.01220,26.99
$IMU,5603.169,-0.366,0.122,6.713,0.02197,-0.03369,1.00585,26.99
$IMU,5603.171,-0.488,0.000,5.981,0.02148,-0.04589,1.01025,26.99
$IMU,5603.173,-0.488,-0.061,4.638,0.01855,-0.03955,1.01025,26.99
$IMU,5603.176,-0.488,0.000,3.662,0.01464,-0.02587,1.01123,26.99
$IMU,5603.178,-0.427,0.000,3.540,0.01708,-0.01757,1.00927,26.99
$IMU,5603.180,-0.488,-0.122,3.784,0.01611,-0.01757,1.01318,26.99
$IMU,5603.183,-0.488,0.000,3.784,0.01513,-0.01953,1.01123,26.99
$IMU,5603.185,-0.488,0.000,3.845,0.01269,-0.02099,1.01220,26.99
$IMU,5603.187,-0.488,-0.122,3.906,0.01416,-0.02148,1.01171,27.01
$IMU,5603.190,-0.488,-0.061,3.601,0.01611,-0.02050,1.01220,27.01
$IMU,5603.192,-0.549,0.000,3.601,0.01367,-0.02148,1.01318,27.01
$IMU,5603.194,-0.488,-0.061,3.784,0.01562,-0.01220,1.01367,27.01
$IMU,5603.197,-0.488,-0.061,4.089,0.01464,-0.01855,1.01025,27.01
$IMU,5603.199,-0.488,0.061,3.967,0.01611,-0.02734,1.01269,27.01
$IMU,5603.201,-0.427,0.000,3.540,0.01171,-0.03906,1.01318,27.01
$IMU,5603.204,-0.488,0.000,2.868,0.01220,-0.03808,1.01171,27.01
$IMU,5603.206,-0.488,0.000,2.136,0.01220,-0.02832,1.01220,26.98
$IMU,5603.209,-0.427,0.000,1.831,0.01171,-0.02490,1.00878,26.98
$IMU,5603.211,-0.549,-0.122,2.136,-0.00439,-0.00878,1.00927,26.98
$IMU,5603.213,-0.427,-0.061,3.723,-0.00195,0.00244,1.01953,26.98
$IMU,5603.216,-0.305,-0.061,4.638,0.01806,-0.03906,1.01416,26.98
$IMU,5603.218,-0.366,-0.061,3.662,0.01953,-0.04003,1.01171,26.98
$IMU,5603.220,-0.427,0.000,2.319,0.02050,-0.04052,1.01025,26.98
$IMU,5603.223,-0.488,0.000,1.098,0.02197,-0.03271,1.01123,26.98
$IMU,5603.225,-0.488,0.061,0.427,0.01855,-0.02490,1.01171,27.04
$IMU,5603.227,-0.488,-0.061,0.061,0.01708,-0.02099,1.01269,27.04
$IMU,5603.230,-0.488,-0.061,-0.122,0.01464,-0.02197,1.01367,27.04
$IMU,5603.232,-0.488,0.061,-0.061,0.01416,-0.01953,1.01171,27.04
$IMU,5603.234,-0.488,-0.061,-0.122,0.01562,-0.02050,1.01416,27.04
$IMU,5603.237,-0.366,-0.122,-0.122,0.01611,-0.01806,1.01220,27.04
$IMU,5603.239,-0.366,-0.061,-0.122,0.01757,-0.02148,1.01123,27.04
$IMU,5603.241,-0.732,0.305,-0.061,0.01464,-0.02050,1.01269,27.04
$IMU,5603.244,-0.610,0.244,-0.061,0.01464,-0.02099,1.01171,27.03
$IMU,5603.246,-0.427,-0.061,-0.061,0.01660,-0.01953,1.01416,27.03
$IMU,5603.248,-0.427,0.000,0.000,0.01220,-0.02099,1.01464,27.03
$IMU,5603.251,-0.427,0.000,-0.061,0.01513,-0.02050,1.01074,27.03
$IMU,5603.253,-0.427,0.000,-0.061,0.01367,-0.01806,1.01318,27.03
$IMU,5603.255,-0.427,0.061,-0.061,0.01464,-0.01953,1.01123,27.03
$IMU,5603.258,-0.488,0.061,0.000,0.01367,-0.02099,1.01416,27.03
$IMU,5603.260,-0.366,0.000,-0.122,0.01416,-0.02246,1.01025,27.03
$IMU,5603.262,-0.427,0.000,0.000,0.01416,-0.01611,1.01074,27.02
$IMU,5603.265,-0.427,0.061,0.061,0.01171,-0.01708,1.01074,27.02
$IMU,5603.267,-0.366,0.061,0.061,0.01220,-0.02246,1.01220,27.02
$IMU,5603.270,-0.427,0.122,0.183,0.01074,-0.01953,1.01367,27.02
$IMU,5603.272,-0.427,0.122,0.244,0.01220,-0.00878,1.01416,27.02
$IMU,5603.274,-0.427,0.061,0.976,0.00488,0.00976,1.01318,27.02
$IMU,5603.277,-0.305,0.061,2.746,0.00390,0.02734,1.01464,27.02
$IMU,5603.279,-0.244,0.061,4.760,0.01269,0.01416,1.01220,27.02
$IMU,5603.281,-0.122,0.061,6.042,0.00976,0.01220,1.01074,27.00
$IMU,5603.284,-0.244,0.122,7.141,-0.00244,0.01708,1.01171,27.00
$IMU,5603.286,-0.366,0.122,7.995,0.01562,-0.00292,1.00976,27.00
$IMU,5603.288,-0.366,0.061,7.202,0.02148,-0.03955,1.01171,27.00
$IMU,5603.291,-0.427,0.000,5.798,0.02246,-0.05273,1.01220,27.00
$IMU,5603.293,-0.427,0.000,4.272,0.02441,-0.06982,1.00830,27.00
$IMU,5603.295,-0.427,0.000,2.624,0.01806,-0.04785,1.01074,27.00
$IMU,5603.298,-0.427,0.000,1.892,0.01611,-0.02685,1.01123,27.00
$IMU,5603.300,-0.427,-0.061,1.586,0.01513,-0.01562,1.01171,27.05
$IMU,5603.302,-0.427,0.000,1.647,0.01513,-0.01074,1.01171,27.05
$IMU,5603.305,-0.427,0.000,1.770,0.01318,-0.01513,1.01367,27.05
$IMU,5603.307,-0.488,-0.061,1.708,0.01611,-0.01757,1.01318,27.05
$IMU,5603.309,-0.549,0.061,1.708,0.01660,-0.02832,1.01171,27.05
$IMU,5603.312,-0.488,0.061,1.586,0.01220,-0.04003,1.01123,27.05
$IMU,5603.314,-0.366,0.000,1.159,0.01269,-0.03759,1.01367,27.05
$IMU,5603.316,-0.305,0.000,0.976,0.01464,-0.02783,1.01269,27.05
$IMU,5603.319,-0.427,0.000,0.854,0.01562,-0.02197,1.01025,27.05
$IMU,5603.321,-0.488,0.000,0.854,0.01220,-0.02246,1.01025,27.05
$IMU,5603.323,-0.488,0.000,0.793,0.01367,-0.02294,1.01367,27.05
$IMU,5603.326,-0.427,-0.061,0.793,0.01171,-0.02148,1.01025,27.05
$IMU,5603.328,-0.488,-0.122,0.610,0.01367,-0.02441,1.01220,27.05
$IMU,5603.331,-0.488,0.000,0.610,0.01367,-0.02099,1.01171,27.05
$IMU,5603.333,-0.488,-0.061,0.610,0.01269,-0.01708,1.01318,27.05
$IMU,5603.335,-0.488,0.061,0.732,0.01708,-0.00341,1.01367,27.05
$IMU,5603.338,-0.427,-0.061,0.793,0.01953,0.00878,1.01611,27.10
$IMU,5603.340,-0.366,-0.061,0.915,0.01855,0.01855,1.01464,27.10
$IMU,5603.342,-0.366,0.061,1.037,0.01416,0.00585,1.01367,27.10
$IMU,5603.345,-0.366,0.061,0.854,0.02099,0.00048,1.01171,27.10
$IMU,5603.347,-0.427,-0.061,0.732,0.01757,-0.01513,1.01367,27.10
$IMU,5603.349,-0.488,0.000,0.549,0.00927,-0.02929,1.01318,27.10
$IMU,5603.352,-0.549,0.000,0.122,0.01025,-0.02148,1.01220,27.10
$BARO,5603.353,86797.54,27.37
$IMU,5603.354,-0.488,0.061,-0.244,0.01513,-0.01318,1.01171,27.10
$IMU,5603.356,-0.427,-0.122,-0.793,0.01660,-0.00634,1.01367,27.05
$MAG,5603.359,-0.370,0.103,-0.862,25.8
$IMU,5603.359,-0.427,-0.061,-1.220,0.01074,-0.02392,1.01220,27.05
$IMU,5603.361,-0.427,0.061,-1.037,0.00976,-0.04345,1.01318,27.05
$IMU,5603.363,-0.427,0.000,-0.610,0.00488,-0.07421,1.00976,27.05
$IMU,5603.366,-0.366,0.061,-0.122,0.00634,-0.06347,1.01123,27.05
$IMU,5603.368,-0.366,0.061,0.000,0.00976,-0.03710,1.00927,27.05
$MAG,5603.369,-0.364,0.103,-0.867,25.7
$IMU,5603.370,-0.305,0.061,0.122,0.00830,-0.02929,1.01171,27.05
$IMU,5603.373,-0.366,0.061,0.061,0.01513,-0.02636,1.01171,27.05
$IMU,5603.375,-0.366,0.061,0.061,0.01464,-0.01806,1.01220,27.08
$IMU,5603.377,-0.366,0.122,0.122,0.01220,-0.01513,1.01171,27.08
$MAG,5603.379,-0.366,0.103,-0.867,25.7
$IMU,5603.380,-0.305,0.122,0.122,0.01269,-0.02636,1.01220,27.08
$IMU,5603.382,-0.366,0.122,0.000,0.01025,-0.03027,1.01416,27.08
$IMU,5603.384,-0.366,0.183,-0.061,0.00781,-0.03515,1.01025,27.08
$IMU,5603.387,-0.427,0.000,-0.122,0.01220,-0.03369,1.01269,27.08
$MAG,5603.389,-0.361,0.108,-0.870,25.7
$IMU,5603.389,-0.366,0.000,-0.122,0.01171,-0.02832,1.01123,27.08
$IMU,5603.392,-0.305,0.061,-0.122,0.01367,-0.02685,1.01171,27.08
$IMU,5603.394,-0.305,0.000,-0.061,0.01171,-0.02343,1.01269,27.08
$IMU,5603.396,-0.305,0.000,-0.183,0.01025,-0.02294,1.00878,27.08
$HUM,5603.398,38.1,27.8
$IMU,5603.399,-0.305,-0.061,-0.061,0.01269,-0.02246,1.01025,27.08
$MAG,5603.400,-0.364,0.109,-0.867,25.7
$IMU,5603.401,-0.366,0.000,-0.122,0.01367,-0.02343,1.01220,27.08
$IMU,5603.403,-0.366,0.061,-0.183,0.01269,-0.02490,1.01269,27.08
$IMU,5603.406,-0.305,0.000,-0.122,0.01318,-0.02050,1.01416,27.08
$IMU,5603.408,-0.244,-0.061,-0.122,0.01416,-0.02148,1.01367,27.08
$MAG,5603.410,-0.369,0.109,-0.870,25.7
$IMU,5603.410,-0.244,-0.061,-0.244,0.01562,-0.02099,1.01416,27.08
$IMU,5603.413,-0.183,-0.244,-0.244,0.01123,-0.01806,1.01318,27.07
$IMU,5603.415,-0.305,-0.061,-0.183,0.01220,-0.02001,1.01074,27.07
$IMU,5603.417,-0.427,0.244,-0.244,0.01562,-0.02246,1.01025,27.07
$MAG,5603.420,-0.375,0.109,-0.871,25.7
$IMU,5603.420,-0.244,0.000,-0.244,0.01367,-0.02294,1.01074,27.07
$IMU,5603.422,-0.244,-0.061,-0.305,0.01611,-0.01855,1.01660,27.07
$IMU,5603.424,-0.305,0.000,-0.244,0.01513,-0.01904,1.00927,27.07
$IMU,5603.427,-0.244,-0.122,-0.305,0.01367,-0.02099,1.01220,27.07
$IMU,5603.429,-0.305,-0.061,-0.427,0.01416,-0.01953,1.01269,27.07
$MAG,5603.430,-0.366,0.106,-0.868,25.6
$IMU,5603.431,-0.366,0.122,-0.427,0.01464,-0.01904,1.01904,27.06
$IMU,5603.434,-0.366,0.061,-0.549,0.01269,-0.02050,1.01123,27.06
$IMU,5603.436,-0.305,0.000,-0.610,0.01171,-0.01904,1.00830,27.06
$IMU,5603.438,-0.244,-0.244,-0.732,0.01513,-0.01171,1.01464,27.06
$MAG,5603.440,-0.376,0.114,-0.868,26.0
$IMU,5603.441,-0.183,-0.305,-1.037,0.01708,-0.01513,1.01513,27.06
$IMU,5603.443,-0.366,0.000,-1.281,0.01513,-0.01611,1.01318,27.06
$IMU,5603.445,-0.244,-0.061,-1.464,0.01318,-0.01855,1.01416,27.06
$IMU,5603.448,-0.305,0.000,-1.342,0.01562,-0.02050,1.01464,27.06
$MAG,5603.450,-0.373,0.111,-0.861,26.0
$IMU,5603.450,-0.305,-0.061,-1.403,0.01367,-0.01025,1.01611,27.14
$IMU,5603.453,-0.366,0.122,-1.586,0.02001,-0.00390,1.01220,27.14
$BARO,5603.455,86794.71,27.37
$IMU,5603.455,-0.427,0.122,-1.953,0.02148,-0.00292,1.01367,27.14
$IMU,5603.457,-0.427,0.122,-2.502,0.03906,0.03515,1.01318,27.14
$IMU,5603.460,-0.488,0.244,-3.723,0.04394,0.06250,1.01904,27.14
$MAG,5603.460,-0.367,0.111,-0.864,26.0
$IMU,5603.462,-0.549,0.183,-4.272,0.02978,0.01806,1.01123,27.14
$IMU,5603.464,-0.305,0.244,-3.601,0.00439,-0.04003,1.01562,27.14
$IMU,5603.467,-0.183,0.122,-2.807,0.00048,-0.05664,1.00878,27.14
$IMU,5603.469,-0.183,0.061,-3.234,0.00830,-0.01953,1.01367,27.12
$MAG,5603.470,-0.367,0.102,-0.865,26.1
$IMU,5603.471,-0.244,0.061,-3.662,0.00927,-0.02685,1.01513,27.12
$IMU,5603.474,-0.244,0.122,-2.624,-0.00781,-0.06884,1.01611,27.12
$IMU,5603.476,-0.244,0.000,-1.220,-0.01074,-0.07910,1.00878,27.12
$IMU,5603.478,-0.366,0.061,-0.488,0.00244,-0.05908,1.00927,27.12
$MAG,5603.480,-0.372,0.106,-0.870,26.1
$IMU,5603.481,-0.366,0.061,-0.122,0.00976,-0.04199,1.01367,27.12
$IMU,5603.483,-0.427,0.000,0.000,0.01123,-0.03320,1.01123,27.12
$IMU,5603.485,-0.427,0.122,0.000,0.01074,-0.02441,1.01074,27.12
$IMU,5603.488,-0.366,0.061,0.000,0.01464,-0.02490,1.01269,27.10
$MAG,5603.490,-0.372,0.108,-0.880,26.0
$IMU,5603.490,-0.366,0.061,0.061,0.01269,-0.02197,1.01074,27.10
$IMU,5603.492,-0.366,0.183,0.122,0.00976,-0.02148,1.01220,27.10
$IMU,5603.495,-0.366,0.183,0.122,0.01171,-0.02050,1.01220,27.10
$IMU,5603.497,-0.366,0.061,0.122,0.01562,-0.02343,1.01220,27.10
$IMU,5603.499,-0.244,0.000,0.122,0.01269,-0.01953,1.01318,27.10
$MAG,5603.500,-0.373,0.099,-0.864,26.1
$IMU,5603.502,-0.305,0.061,0.183,0.01220,-0.01904,1.01513,27.10
$IMU,5603.504,-0.366,0.122,0.244,0.01367,-0.02001,1.01269,27.10
$IMU,5603.506,-0.366,0.122,0.427,0.01562,-0.02099,1.01123,27.08
$IMU,5603.509,-0.305,0.122,0.671,0.01562,-0.01562,1.01367,27.08
$MAG,5603.510,-0.366,0.112,-0.870,26.1
$IMU,5603.511,-0.183,0.000,1.037,0.02099,-0.00732,1.01318,27.08
$IMU,5603.513,-0.305,0.183,1.708,0.02832,-0.00048,1.01123,27.08
$IMU,5603.516,-0.244,0.061,2.685,0.02783,0.00048,1.01269,27.08
$IMU,5603.518,-0.244,-0.061,3.601,0.02880,0.00341,1.01416,27.08
$MAG,5603.520,-0.364,0.106,-0.862,25.7
$IMU,5603.521,-0.244,0.183,4.516,0.02783,-0.00048,1.01171,27.08
$IMU,5603.523,-0.122,0.061,5.554,0.03955,0.01318,1.01318,27.08
$IMU,5603.525,-0.183,0.000,7.080,0.03759,0.01953,1.01416,27.10
$IMU,5603.528,-0.061,-0.061,8.178,0.01904,-0.01318,1.01562,27.10
$IMU,5603.530,-0.244,0.061,8.361,0.02343,-0.03515,1.01171,27.10
$MAG,5603.531,-0.370,0.108,-0.858,26.1
$IMU,5603.532,-0.244,0.183,8.361,0.01562,-0.03125,1.01074,27.10
$IMU,5603.535,-0.244,0.244,7.873,0.01025,-0.02685,1.01269,27.10
$IMU,5603.537,-0.183,0.061,7.141,0.03222,0.02978,1.01562,27.10
$IMU,5603.539,-0.244,0.061,7.202,0.01074,0.06445,1.01806,27.10
$MAG,5603.541,-0.367,0.100,-0.871,26.1
$IMU,5603.542,-0.305,0.122,6.652,-0.00292,0.05371,1.01416,27.10
$IMU,5603.544,-0.488,0.305,5.615,0.01025,0.03613,1.00927,27.09
$IMU,5603.546,-0.427,0.000,5.371,0.00830,0.02978,1.00585,27.09
$IMU,5603.549,-0.366,-0.061,4.699,0.00292,-0.04931,1.01171,27.09
$MAG,5603.551,-0.372,0.106,-0.871,25.7
$IMU,5603.551,0.183,-0.122,2.807,-0.00878,-0.05761,1.01025,27.09
$IMU,5603.553,0.183,-0.183,0.122,-0.01220,-0.06396,1.01416,27.09
$BARO,5603.556,86794.11,27.37
$IMU,5603.556,-0.244,-0.122,-0.976,-0.00488,-0.11669,1.01123,27.09
$IMU,5603.558,-0.427,0.061,-1.342,0.00195,-0.09765,1.01171,27.09
$IMU,5603.560,-0.549,0.244,-1.708,0.00146,-0.06982,1.01318,27.09
$MAG,5603.561,-0.360,0.108,-0.861,26.0
$IMU,5603.563,-0.427,0.061,-1.708,0.00830,-0.04589,1.01269,27.11
$IMU,5603.565,-0.183,-0.122,-1.708,0.02441,-0.01806,1.01367,27.11
$IMU,5603.567,-0.122,-0.061,-1.892,0.03173,-0.00976,1.01660,27.11
$IMU,5603.570,-0.061,0.061,-2.197,0.03759,-0.00634,1.01611,27.11
$MAG,5603.571,-0.363,0.099,-0.868,26.0
$IMU,5603.572,-0.366,0.183,-2.807,0.03076,-0.00244,1.01367,27.11
$IMU,5603.574,-0.488,0.488,-3.723,0.01806,-0.00244,1.01464,27.11
$IMU,5603.577,0.244,0.732,-3.479,-0.01611,-0.05957,1.02050,27.11
$IMU,5603.579,0.183,0.244,-1.892,-0.00097,-0.02050,1.00439,27.11
$MAG,5603.581,-0.375,0.106,-0.859,26.0
$IMU,5603.582,-0.183,0.244,-2.746,0.03271,0.02197,1.01025,27.12
$IMU,5603.584,-0.427,0.183,-4.211,0.03369,0.03027,1.00927,27.12
$IMU,5603.586,-0.915,0.000,-5.310,0.01660,-0.02148,1.01318,27.12
$IMU,5603.589,-0.732,-0.183,-4.638,-0.02246,-0.09423,1.01562,27.12
$MAG,5603.591,-0.367,0.103,-0.867,25.8
$IMU,5603.591,-0.427,0.000,-3.234,-0.02197,-0.08056,1.01269,27.12
$IMU,5603.593,-0.305,0.000,-2.563,-0.00488,-0.03955,1.01123,27.12
$IMU,5603.596,-0.366,0.000,-2.990,0.01953,0.00683,1.01562,27.12
$IMU,5603.598,-0.244,0.122,-3.967,0.01757,0.00585,1.01025,27.12
$IMU,5603.600,-0.244,0.122,-4.760,0.01416,-0.00341,1.01367,27.12
$MAG,5603.601,-0.369,0.103,-0.864,25.7
$IMU,5603.603,-0.183,0.000,-5.126,0.01220,-0.00048,1.01220,27.12
$IMU,5603.605,-0.305,-0.122,-5.615,0.01708,-0.01123,1.01220,27.12
$IMU,5603.607,-0.122,-0.122,-5.126,0.00341,-0.05664,1.01611,27.12
$IMU,5603.610,-0.061,-0.061,-3.784,-0.01220,-0.09326,1.01464,27.12
$MAG,5603.611,-0.372,0.103,-0.864,26.1
$IMU,5603.612,-0.244,0.061,-2.258,-0.01513,-0.09765,1.01074,27.12
$IMU,5603.614,-0.305,0.061,-0.915,0.00048,-0.05810,1.01220,27.12
$IMU,5603.617,-0.244,-0.061,-0.366,0.01123,-0.02539,1.01269,27.12
$IMU,5603.619,-0.305,-0.122,-0.183,0.01367,-0.02148,1.01318,27.12
$MAG,5603.621,-0.373,0.111,-0.864,25.7
$IMU,5603.621,-0.305,-0.061,-0.183,0.01318,-0.02099,1.01513,27.12
$IMU,5603.624,-0.427,0.000,-0.183,0.01025,-0.02001,1.01269,27.12
$IMU,5603.626,-0.366,0.061,-0.244,0.01318,-0.02050,1.01318,27.12
$IMU,5603.628,-0.305,0.061,-0.122,0.01464,-0.01855,1.01757,27.12
$MAG,5603.631,-0.364,0.105,-0.874,26.1
$IMU,5603.631,-0.366,0.061,-0.122,0.01416,-0.01904,1.01416,27.12
$IMU,5603.633,-0.427,-0.061,-0.183,0.01220,-0.01513,1.01513,27.12
$IMU,5603.635,-0.488,-0.122,-0.183,0.01367,-0.02490,1.01318,27.12
$IMU,5603.638,-0.488,-0.061,-0.305,0.01367,-0.02294,1.01416,27.12
$IMU,5603.640,-0.610,0.183,-0.305,0.01367,-0.02197,1.01123,27.12
$MAG,5603.641,-0.376,0.109,-0.868,26.1
$IMU,5603.643,-0.549,0.000,-0.305,0.01464,-0.01660,1.01708,27.12
$IMU,5603.645,-0.732,-0.122,-0.610,0.00097,0.01367,1.03027,27.12
$IMU,5603.647,-0.793,0.305,-2.441,0.01757,-0.02099,1.00146,27.12
$IMU,5603.650,-0.366,-0.061,-2.258,0.01611,-0.04687,1.00537,27.12
$MAG,5603.651,-0.369,0.102,-0.871,26.0
$IMU,5603.652,-0.305,0.061,-1.342,0.01367,-0.02197,1.01367,27.12
$IMU,5603.654,-0.427,0.000,-1.342,0.00927,-0.02294,1.01416,27.12
$IMU,5603.657,-0.366,-0.061,-1.831,0.00537,-0.02539,1.01220,27.07
$BARO,5603.658,86798.13,27.37
$IMU,5603.659,-0.305,-0.122,-4.699,0.00927,-0.03857,1.01220,27.07
$IMU,5603.661,-0.427,0.061,-8.666,0.02197,-0.04394,1.01464,27.07
$MAG,5603.662,-0.364,0.103,-0.862,25.8
$IMU,5603.664,-0.488,-0.061,-10.681,0.02148,-0.03125,1.01269,27.07
$IMU,5603.666,-0.610,0.061,-10.498,0.02392,-0.01123,1.01269,27.07
$IMU,5603.668,-0.427,0.000,-8.666,0.01318,0.00195,1.01562,27.07
$IMU,5603.671,-0.427,0.061,-6.042,0.01171,0.00292,1.01269,27.07
$MAG,5603.672,-0.363,0.108,-0.867,26.1
$IMU,5603.673,-0.366,0.183,-3.723,0.00439,-0.00683,1.01171,27.07
$IMU,5603.675,-0.305,0.305,-2.929,0.01416,-0.01074,1.01220,27.10
$IMU,5603.678,-0.244,0.122,-3.540,0.02050,0.00195,1.01464,27.10
$IMU,5603.680,-0.366,0.488,-4.943,0.02392,0.00146,1.01611,27.10
$MAG,5603.682,-0.372,0.111,-0.868,26.1
$IMU,5603.682,-0.244,0.305,-6.469,0.01904,-0.01513,1.01220,27.10
$IMU,5603.685,-0.244,0.183,-7.934,-0.00244,-0.02783,1.01074,27.10
$IMU,5603.687,-0.183,0.244,-9.826,0.00146,-0.02197,1.01025,27.10
$IMU,5603.689,-0.061,-0.122,-12.207,0.00927,-0.01855,1.01611,27.10
$MAG,5603.692,-0.369,0.111,-0.867,25.8
$IMU,5603.692,-0.305,0.061,-14.526,0.00830,-0.03222,1.01757,27.10
$IMU,5603.694,-0.427,0.488,-16.479,-0.00927,-0.01123,1.01855,27.12
$IMU,5603.696,0.061,0.671,-17.639,-0.02734,-0.00097,1.00732,27.12
$IMU,5603.699,0.305,0.366,-17.578,-0.02148,-0.00878,1.02001,27.12
$IMU,5603.701,-0.122,0.244,-16.845,-0.01220,0.00146,1.00732,27.12
$MAG,5603.702,-0.373,0.106,-0.879,26.1
$IMU,5603.704,-0.122,0.549,-15.808,0.01660,-0.02392,1.01123,27.12
$IMU,5603.706,-0.061,0.244,-13.732,0.02539,-0.01708,1.01171,27.12
$IMU,5603.708,-0.183,0.000,-12.084,0.01806,-0.02294,1.00878,27.12
$IMU,5603.711,-0.061,0.061,-10.559,0.03271,-0.04736,1.01220,27.12
$MAG,5603.712,-0.378,0.109,-0.867,26.1
$IMU,5603.713,0.061,-0.122,-8.361,0.03710,-0.06298,1.01171,27.11
$IMU,5603.715,-0.122,-0.061,-5.676,0.03759,-0.06689,1.01367,27.11
$IMU,5603.718,-0.183,0.061,-3.112,0.03222,-0.04882,1.01464,27.11
$IMU,5603.720,-0.305,0.061,-1.647,0.02246,-0.03369,1.01611,27.11
$MAG,5603.722,-0.369,0.111,-0.867,26.1
$IMU,5603.722,-0.366,-0.061,-1.098,0.01708,-0.02099,1.01318,27.11
$IMU,5603.725,-0.244,-0.061,-0.854,0.01367,-0.02294,1.01464,27.11
$IMU,5603.727,-0.305,-0.061,-0.793,0.01318,-0.02294,1.01562,27.11
$IMU,5603.729,-0.305,0.000,-0.793,0.01171,-0.01904,1.01464,27.11
$MAG,5603.732,-0.378,0.103,-0.867,26.1
$IMU,5603.732,-0.366,0.061,-0.854,0.01123,-0.01904,1.01269,27.13
$IMU,5603.734,-0.366,-0.122,-1.098,0.00976,-0.01953,1.01611,27.13
$IMU,5603.736,-0.366,-0.061,-1.586,0.00878,-0.01953,1.01416,27.13
$IMU,5603.739,-0.427,0.061,-2.075,0.01025,-0.02001,1.01416,27.13
$IMU,5603.741,-0.427,-0.061,-2.624,0.00488,-0.01904,1.00976,27.13
$MAG,5603.742,-0.369,0.106,-0.873,26.1
$IMU,5603.743,-0.305,-0.122,-3.906,-0.00878,0.00537,1.02050,27.13
$IMU,5603.746,-0.305,0.122,-6.103,0.00146,-0.02197,1.01074,27.13
$IMU,5603.748,-0.183,-0.061,-6.774,0.01660,-0.04248,1.01074,27.13
$IMU,5603.750,-0.244,-0.122,-5.676,0.03027,-0.02832,1.01464,27.12
$MAG,5603.752,-0.364,0.105,-0.865,26.1
$IMU,5603.753,-0.305,-0.122,-4.272,0.03076,-0.02099,1.01220,27.12
$IMU,5603.755,-0.366,-0.061,-2.929,0.02246,-0.01562,1.01464,27.12
$IMU,5603.757,-0.366,-0.183,-1.708,0.01416,-0.01757,1.01220,27.12
$IMU,5603.760,-0.366,-0.061,-1.037,0.01611,-0.02001,1.01660,27.12
$BARO,5603.759,86793.72,27.37
$MAG,5603.762,-0.370,0.105,-0.870,26.1
$IMU,5603.762,-0.366,0.061,-0.793,0.01269,-0.02294,1.01171,27.12
$IMU,5603.764,-0.244,-0.183,-0.610,0.01171,-0.02099,1.01562,27.12
$IMU,5603.767,-0.244,-0.061,-0.549,0.01416,-0.02197,1.01220,27.12
$IMU,5603.769,-0.305,-0.122,-0.366,0.01416,-0.02294,1.01416,27.12
$MAG,5603.772,-0.369,0.108,-0.865,26.1
$IMU,5603.772,-0.244,-0.061,-0.366,0.01416,-0.02197,1.01220,27.12
$IMU,5603.774,-0.305,0.122,-0.305,0.01464,-0.02441,1.01269,27.12
$IMU,5603.776,-0.244,-0.061,-0.183,0.01123,-0.02783,1.01171,27.12
$IMU,5603.779,-0.183,-0.244,-0.183,0.01562,-0.02001,1.01513,27.12
$IMU,5603.781,-0.244,0.000,-0.183,0.01513,-0.02343,1.01074,27.12
$MAG,5603.782,-0.369,0.109,-0.864,26.0
$IMU,5603.783,-0.244,0.000,-0.183,0.01513,-0.01806,1.01464,27.12
$IMU,5603.786,-0.305,-0.061,-0.183,0.01416,-0.02734,1.01220,27.12
$IMU,5603.788,-0.183,-0.061,-0.183,0.01416,-0.02246,1.01318,27.14
$IMU,5603.790,-0.122,-0.183,-0.122,0.01171,-0.02099,1.01513,27.14
$MAG,5603.793,-0.376,0.109,-0.868,26.1
$IMU,5603.793,-0.183,-0.122,-0.183,0.00976,-0.02197,1.01660,27.14
$IMU,5603.795,-0.305,0.122,-0.122,0.01220,-0.02294,1.01660,27.14
$IMU,5603.797,-0.305,0.000,-0.122,0.01562,-0.01904,1.01611,27.14
$IMU,5603.800,-0.183,0.061,-0.122,0.01562,-0.02099,1.01708,27.14
$IMU,5603.802,-0.244,0.061,-0.061,0.01171,-0.02001,1.01757,27.14
$MAG,5603.803,-0.370,0.100,-0.865,26.1
$IMU,5603.804,-0.305,0.000,-0.122,0.01416,-0.02197,1.01464,27.14
$IMU,5603.807,-0.244,-0.061,-0.061,0.00976,-0.02197,1.01318,27.09
$IMU,5603.809,-0.305,0.122,-0.122,0.01123,-0.01904,1.01025,27.09
$IMU,5603.811,-0.305,0.122,-0.122,0.01220,-0.02050,1.01318,27.09
$MAG,5603.813,-0.379,0.105,-0.867,26.1
$IMU,5603.814,-0.244,0.000,-0.061,0.01171,-0.02050,1.01269,27.09
$IMU,5603.816,-0.244,-0.061,0.000,0.01220,-0.01904,1.01416,27.09
$IMU,5603.818,-0.183,0.000,-0.122,0.01464,-0.01708,1.01562,27.09
$IMU,5603.821,-0.305,0.000,-0.122,0.01220,-0.02392,1.01562,27.09
$MAG,5603.823,-0.358,0.109,-0.865,26.1
$IMU,5603.823,-0.305,0.061,-0.122,0.01220,-0.02099,1.01220,27.09
$IMU,5603.825,-0.244,0.000,-0.061,0.01367,-0.02490,1.01464,27.14
$IMU,5603.828,-0.122,-0.061,0.000,0.01025,-0.02441,1.01513,27.14
$IMU,5603.830,-0.122,-0.122,-0.061,0.01074,-0.01806,1.01513,27.14
$MAG,5603.833,-0.375,0.109,-0.867,26.0
$IMU,5603.833,-0.122,0.000,0.000,0.01269,-0.02392,1.01269,27.14
$IMU,5603.835,-0.244,0.122,-0.061,0.01513,-0.02050,1.01416,27.14
$IMU,5603.837,-0.122,-0.183,-0.061,0.01513,-0.02148,1.01220,27.14
$IMU,5603.840,-0.244,-0.122,-0.061,0.01513,-0.02246,1.01513,27.14
$IMU,5603.842,-0.183,-0.122,-0.061,0.01025,-0.01953,1.01269,27.14
$MAG,5603.843,-0.369,0.109,-0.862,26.0
$IMU,5603.844,-0.366,0.061,-0.122,0.01318,-0.01806,1.01562,27.12
$IMU,5603.847,-0.366,0.000,-0.061,0.01367,-0.01855,1.01806,27.12
$IMU,5603.849,-0.366,0.000,0.000,0.01171,-0.01611,1.01562,27.12
$IMU,5603.851,-0.366,0.061,0.000,0.01464,-0.02148,1.01220,27.12
$MAG,5603.853,-0.370,0.111,-0.864,26.1
$IMU,5603.854,-0.244,-0.122,0.000,0.01367,-0.02148,1.01123,27.12
$IMU,5603.856,-0.244,-0.122,0.122,0.01611,-0.02050,1.01269,27.12
$IMU,5603.858,-0.366,0.122,0.488,0.02294,-0.01318,1.01269,27.12
$BARO,5603.861,86803.76,27.37
$IMU,5603.861,-0.244,0.000,1.037,0.01855,-0.01123,1.01513,27.12
$MAG,5603.863,-0.364,0.105,-0.867,26.1
$IMU,5603.863,-0.183,-0.061,1.342,0.01171,-0.01367,1.01416,27.12
$IMU,5603.865,-0.183,-0.183,1.159,0.00878,-0.02294,1.01708,27.12
$IMU,5603.868,-0.122,-0.244,0.854,0.01074,-0.02246,1.01220,27.12
$IMU,5603.870,-0.122,-0.244,0.671,0.00976,-0.02099,1.01708,27.12
$IMU,5603.872,-0.183,-0.122,0.610,0.01269,-0.02099,1.01269,27.12
$MAG,5603.873,-0.369,0.106,-0.864,26.2
$IMU,5603.875,-0.183,-0.061,0.610,0.01464,-0.02050,1.01269,27.12
$IMU,5603.877,-0.061,-0.366,0.488,0.01220,-0.01855,1.01269,27.12
$IMU,5603.879,-0.122,-0.244,0.366,0.01025,-0.02001,1.01562,27.12
$IMU,5603.882,-0.244,-0.183,0.183,0.01074,-0.01953,1.01220,27.12
$MAG,5603.883,-0.375,0.114,-0.864,26.1
$IMU,5603.884,-0.244,-0.061,0.000,0.01416,-0.01660,1.01367,27.12
$IMU,5603.886,-0.366,0.061,0.061,0.01611,-0.01660,1.01562,27.12
$IMU,5603.889,-0.244,0.000,-0.061,0.01416,-0.02148,1.01318,27.12
$IMU,5603.891,-0.244,-0.061,-0.061,0.01513,-0.01855,1.01464,27.12
$MAG,5603.893,-0.373,0.100,-0.871,26.1
$IMU,5603.894,-0.244,0.000,-0.305,0.01074,-0.01708,1.01416,27.12
$IMU,5603.896,-0.305,0.122,-0.610,0.01513,-0.01611,1.01318,27.12
$IMU,5603.898,-0.427,0.183,-0.854,0.01464,-0.02001,1.01123,27.12
$IMU,5603.901,-0.366,0.061,-0.854,0.01123,-0.02685,1.01660,27.10
$MAG,5603.903,-0.370,0.109,-0.870,26.2
$IMU,5603.903,-0.427,0.000,-0.793,0.01025,-0.02587,1.01464,27.10
$IMU,5603.905,-0.244,-0.122,-0.671,0.00585,-0.02636,1.01416,27.10
$IMU,5603.908,-0.183,-0.183,-0.610,0.00976,-0.02685,1.01416,27.10
$IMU,5603.910,-0.244,-0.183,-0.427,0.00878,-0.02490,1.01220,27.10
$IMU,5603.912,-0.244,0.000,-0.427,0.01464,-0.02197,1.01416,27.10
$MAG,5603.913,-0.373,0.112,-0.876,26.0
$IMU,5603.915,-0.244,-0.122,-0.366,0.01269,-0.02148,1.01562,27.10
$IMU,5603.917,-0.122,-0.183,-0.366,0.01367,-0.02050,1.01269,27.10
$IMU,5603.919,-0.122,-0.305,-0.244,0.01123,-0.02197,1.01562,27.08
$IMU,5603.922,-0.244,-0.183,-0.305,0.01074,-0.02343,1.01367,27.08
$MAG,5603.924,-0.372,0.105,-0.873,26.1
$IMU,5603.924,-0.305,0.000,-0.244,0.01318,-0.02441,1.01464,27.08
$IMU,5603.926,-0.305,0.061,-0.122,0.01269,-0.02392,1.01416,27.08
$IMU,5603.929,-0.305,0.061,-0.122,0.01513,-0.02294,1.01367,27.08
$IMU,5603.931,-0.244,0.000,-0.061,0.01220,-0.02441,1.01416,27.08
$IMU,5603.933,-0.244,0.000,-0.061,0.01367,-0.02392,1.01611,27.08
$MAG,5603.934,-0.372,0.109,-0.861,26.1
$IMU,5603.936,-0.366,0.183,-0.061,0.01269,-0.02441,1.01269,27.08
$IMU,5603.938,-0.305,0.244,0.427,0.03613,-0.01269,1.01318,27.13
$IMU,5603.940,-0.122,0.061,1.342,0.02050,0.00000,1.01562,27.13
$IMU,5603.943,-0.061,-0.061,2.014,0.02001,-0.00488,1.01416,27.13
$MAG,5603.944,-0.373,0.108,-0.861,26.0
$IMU,5603.945,-0.061,-0.122,2.807,0.02392,-0.00585,1.01171,27.13
$IMU,5603.947,-0.061,-0.244,3.601,0.02099,-0.00244,1.01416,27.13
$IMU,5603.950,0.000,-0.183,4.211,0.02001,-0.00585,1.01806,27.13
$IMU,5603.952,-0.183,-0.061,4.638,0.00976,-0.01416,1.01757,27.13
$MAG,5603.954,-0.373,0.097,-0.880,26.1
$IMU,5603.955,-0.061,-0.122,4.577,0.00244,-0.03125,1.01367,27.13
$IMU,5603.957,0.000,-0.122,4.211,0.00195,-0.03955,1.01269,27.10
$IMU,5603.959,-0.061,0.000,3.479,-0.00097,-0.04394,1.01464,27.10
$BARO,5603.962,86796.18,27.36
$IMU,5603.962,-0.183,0.061,2.380,-0.00097,-0.04443,1.01416,27.10
$MAG,5603.964,-0.366,0.103,-0.874,26.1
$IMU,5603.964,-0.183,0.061,1.281,-0.00048,-0.03759,1.01269,27.10
$IMU,5603.966,-0.244,0.000,0.366,0.00781,-0.02880,1.01367,27.10
$IMU,5603.969,-0.305,0.000,0.000,0.01318,-0.02099,1.01513,27.10
$IMU,5603.971,-0.366,0.000,-0.122,0.01562,-0.02294,1.01562,27.10
$IMU,5603.973,-0.305,-0.122,-0.061,0.01318,-0.02148,1.01806,27.10
$MAG,5603.974,-0.363,0.102,-0.862,26.1
$IMU,5603.976,-0.366,0.122,-0.122,0.01416,-0.02343,1.01367,27.15
$IMU,5603.978,-0.244,0.000,-0.305,0.01953,-0.02685,1.01318,27.15
$IMU,5603.980,-0.183,-0.122,-0.793,0.00244,-0.01074,1.01220,27.15
$IMU,5603.983,-0.366,-0.122,-0.244,0.01367,-0.02197,1.01220,27.15
$MAG,5603.984,-0.375,0.112,-0.864,26.1
$IMU,5603.985,-0.305,-0.061,-0.183,0.01220,-0.02343,1.01367,27.15
$IMU,5603.987,-0.244,-0.061,-0.244,0.01464,-0.02197,1.01806,27.15
$IMU,5603.990,-0.366,-0.183,-0.244,0.01367,-0.02148,1.01708,27.15
$IMU,5603.992,-0.366,-0.061,-0.183,0.01318,-0.02050,1.01416,27.15
$MAG,5603.994,-0.373,0.105,-0.874,26.1
$IMU,5603.994,-0.244,-0.244,-0.183,0.01269,-0.02197,1.01416,27.14
$IMU,5603.997,-0.305,-0.183,-0.183,0.01416,-0.02001,1.01464,27.14
$IMU,5603.999,-0.366,0.122,-0.183,0.01416,-0.01708,1.01318,27.14
$IMU,5604.001,-0.427,0.000,-0.183,0.01464,-0.01611,1.01708,27.14
$MAG,5604.004,-0.367,0.102,-0.862,26.1
$IMU,5604.004,-0.305,-0.061,-0.183,0.00976,-0.02197,1.01513,27.14
$IMU,5604.006,-0.305,0.061,-0.122,0.01464,-0.02148,1.01123,27.14
$IMU,5604.008,-0.305,0.000,-0.183,0.01318,-0.02050,1.01220,27.14
$IMU,5604.011,-0.366,-0.061,-0.183,0.01269,-0.02246,1.01611,27.14
$IMU,5604.013,-0.305,-0.122,-0.244,0.01269,-0.02490,1.01269,27.12
$MAG,5604.014,-0.366,0.102,-0.873,26.1
$IMU,5604.016,-0.427,0.305,-0.122,0.01611,-0.02246,1.01367,27.12
$IMU,5604.018,-0.366,0.061,-0.122,0.01611,-0.02001,1.01464,27.12
$IMU,5604.020,-0.244,-0.183,-0.122,0.01757,-0.02050,1.01171,27.12
$IMU,5604.023,-0.305,0.122,-0.183,0.01611,-0.02246,1.01464,27.12
$MAG,5604.024,-0.367,0.108,-0.870,26.1
$IMU,5604.025,-0.244,0.000,-0.244,0.01416,-0.02441,1.01318,27.12
$IMU,5604.027,-0.366,-0.061,-0.244,0.01269,-0.02587,1.01269,27.12
$IMU,5604.030,-0.366,0.000,-0.122,0.01025,-0.01708,1.01318,27.12
$IMU,5604.032,-0.488,0.183,-0.244,0.01269,-0.01904,1.01367,27.13
$MAG,5604.034,-0.375,0.102,-0.861,26.1
$IMU,5604.034,-0.244,-0.061,-0.366,0.01318,-0.01953,1.01367,27.13
$IMU,5604.037,-0.183,-0.122,-0.305,0.01318,-0.02587,1.01318,27.13
$IMU,5604.039,-0.488,0.244,-0.305,0.01171,-0.02001,1.01416,27.13
$IMU,5604.041,-0.488,0.122,-0.305,0.01562,-0.02294,1.01220,27.13
$IMU,5604.044,-0.366,0.061,-0.366,0.01708,-0.01855,1.01562,27.13
$MAG,5604.045,-0.376,0.109,-0.859,26.1
$IMU,5604.046,-0.427,0.122,-0.488,0.01562,-0.01757,1.01318,27.13
$IMU,5604.048,-0.427,0.061,-0.427,0.02050,-0.01757,1.01562,27.13
$IMU,5604.051,-0.427,-0.183,-0.427,0.00439,0.02294,1.01074,27.10
$IMU,5604.053,-0.671,-0.122,-2.441,0.02880,0.00390,1.02294,27.10
$MAG,5604.055,-0.370,0.105,-0.868,26.1
$IMU,5604.055,-0.488,0.183,-3.112,0.02685,-0.02734,1.01074,27.10
$IMU,5604.058,-0.305,0.000,-2.624,0.01123,-0.02539,1.01269,27.10
$IMU,5604.060,-0.305,-0.122,-2.319,0.00732,-0.02978,1.01611,27.10
$IMU,5604.062,-0.183,0.061,-1.647,0.00488,-0.04394,1.01367,27.10
$BARO,5604.064,86801.56,27.37
$MAG,5604.065,-0.370,0.106,-0.870,26.2
$IMU,5604.065,-0.183,0.061,-0.915,0.00195,-0.03759,1.01220,27.10
$IMU,5604.067,-0.244,0.061,-0.610,0.00927,-0.03320,1.01513,27.10
$IMU,5604.069,-0.305,0.122,-0.366,0.00830,-0.03027,1.01416,27.12
$IMU,5604.072,-0.305,0.000,-0.244,0.00781,-0.02392,1.01416,27.12
$IMU,5604.074,-0.183,-0.244,-0.366,0.00927,-0.02246,1.01660,27.12
$MAG,5604.075,-0.370,0.117,-0.868,26.1
$IMU,5604.076,-0.305,-0.061,-0.671,0.00878,-0.00781,1.01562,27.12
$IMU,5604.079,-0.427,0.183,-1.220,0.01953,-0.02392,1.01904,27.12
$IMU,5604.081,-0.366,0.061,-1.037,0.01220,-0.02441,1.01318,27.12
$IMU,5604.084,-0.366,0.122,-0.976,0.00781,-0.02294,1.01367,27.12
$MAG,5604.085,-0.375,0.103,-0.868,26.1
$IMU,5604.086,-0.305,0.061,-1.037,0.00927,-0.02392,1.01367,27.12
$IMU,5604.088,-0.244,-0.122,-0.732,0.01220,-0.03027,1.00878,27.12
$IMU,5604.091,-0.183,-0.244,-0.488,0.01123,-0.02832,1.01464,27.12
$IMU,5604.093,-0.305,-0.122,-0.427,0.01171,-0.02636,1.01513,27.12
$MAG,5604.095,-0.376,0.111,-0.864,26.1
$IMU,5604.095,-0.366,0.000,-0.244,0.01464,-0.02197,1.01513,27.12
$IMU,5604.098,-0.183,-0.183,-0.183,0.01367,-0.02197,1.01318,27.12
$IMU,5604.100,-0.183,-0.122,-0.244,0.01269,-0.02246,1.01562,27.12
$IMU,5604.102,-0.305,0.000,-0.183,0.01416,-0.02246,1.01416,27.12
$MAG,5604.105,-0.378,0.112,-0.867,26.1
$IMU,5604.105,-0.305,-0.122,-0.183,0.00927,-0.02294,1.01562,27.12
$IMU,5604.107,-0.366,-0.061,-0.183,0.01171,-0.02392,1.01416,27.10
$IMU,5604.109,-0.244,-0.244,-0.305,0.01367,-0.02587,1.01123,27.10
$IMU,5604.112,-0.244,-0.122,-0.183,0.01171,-0.02343,1.01513,27.10
$IMU,5604.114,-0.244,-0.183,-0.183,0.01318,-0.02246,1.01269,27.10
$MAG,5604.115,-0.373,0.103,-0.864,26.1
$IMU,5604.116,-0.305,0.000,-0.122,0.01074,-0.01904,1.01220,27.10
$VBAT,5604.117,4.143
$IMU,5604.119,-0.427,0.183,-0.183,0.01123,-0.02294,1.01171,27.10
$IMU,5604.121,-0.305,-0.061,-0.122,0.01123,-0.02343,1.01367,27.10
$IMU,5604.123,-0.366,-0.122,-0.183,0.01074,-0.02246,1.01318,27.10
$MAG,5604.125,-0.369,0.100,-0.873,26.1
$IMU,5604.126,-0.244,-0.183,-0.183,0.00976,-0.02099,1.01513,27.11
$IMU,5604.128,-0.244,-0.183,-0.061,0.01513,-0.02294,1.01416,27.11
$IMU,5604.130,-0.244,-0.183,-0.122,0.01367,-0.02294,1.01416,27.11
$IMU,5604.133,-0.366,0.000,-0.122,0.01513,-0.02001,1.01660,27.11
$MAG,5604.135,-0.369,0.106,-0.867,26.1
$IMU,5604.135,-0.488,0.122,-0.122,0.01611,-0.02441,1.01855,27.11
$IMU,5604.137,-0.244,-0.244,-0.183,0.01318,-0.02636,1.01074,27.11
$IMU,5604.140,-0.122,-0.366,0.000,0.01367,-0.02246,1.01269,27.11
$IMU,5604.142,-0.244,-0.183,0.000,0.01269,-0.02294,1.01269,27.11
$MAG,5604.145,-0.373,0.114,-0.867,26.1
$IMU,5604.145,-0.305,-0.061,-0.122,0.01318,-0.02050,1.01269,27.08
$IMU,5604.147,-0.427,0.122,-0.122,0.01123,-0.01855,1.01513,27.08
$IMU,5604.149,-0.366,0.061,-0.183,0.01269,-0.01806,1.01220,27.08
$IMU,5604.152,-0.366,0.000,-0.122,0.01171,-0.01806,1.01562,27.08
$IMU,5604.154,-0.244,-0.122,-0.122,0.01269,-0.01855,1.01464,27.08
$MAG,5604.155,-0.379,0.103,-0.865,26.1
$IMU,5604.156,-0.305,0.061,-0.122,0.01171,-0.01757,1.01464,27.08
$IMU,5604.159,-0.427,0.305,-0.183,0.01416,-0.02294,1.01171,27.08
$IMU,5604.161,-0.366,0.244,-0.183,0.01611,-0.01904,1.01660,27.08
$IMU,5604.163,-0.244,0.000,-0.061,0.01220,-0.02441,1.01318,27.10
$BARO,5604.165,86792.76,27.36
$MAG,5604.165,-0.372,0.114,-0.871,26.2
$IMU,5604.166,-0.183,0.061,-0.061,0.01074,-0.02490,1.01562,27.10
$IMU,5604.168,-0.183,-0.122,-0.061,0.01367,-0.02294,1.01855,27.10
$IMU,5604.170,-0.183,-0.122,-0.061,0.01416,-0.02001,1.01611,27.10
$IMU,5604.173,-0.244,0.000,-0.183,0.01171,-0.02246,1.01367,27.10
$IMU,5604.175,-0.244,0.061,-0.122,0.01025,-0.02197,1.01416,27.10
$MAG,5604.176,-0.379,0.108,-0.871,26.1
$IMU,5604.177,-0.183,-0.061,-0.183,0.00927,-0.02392,1.01367,27.10
$IMU,5604.180,-0.122,-0.183,-0.183,0.01416,-0.02197,1.01367,27.10
$IMU,5604.182,-0.244,0.061,-0.122,0.01562,-0.02343,1.01269,27.15
$IMU,5604.184,-0.244,-0.061,-0.122,0.01416,-0.02294,1.01318,27.15
$MAG,5604.186,-0.366,0.100,-0.874,26.1
$IMU,5604.187,-0.183,-0.122,-0.122,0.01367,-0.02246,1.01611,27.15
$IMU,5604.189,-0.305,0.000,-0.183,0.01269,-0.02343,1.01171,27.15
$IMU,5604.191,-0.183,0.000,-0.122,0.01220,-0.01904,1.01611,27.15
$IMU,5604.194,-0.244,0.000,-0.122,0.01025,-0.01953,1.01660,27.15
$MAG,5604.196,-0.373,0.105,-0.871,26.1
$IMU,5604.196,-0.244,-0.061,-0.183,0.01318,-0.01953,1.01318,27.15
$IMU,5604.198,-0.366,0.183,-0.122,0.01416,-0.02246,1.01660,27.15
$IMU,5604.201,-0.244,-0.061,-0.061,0.01367,-0.02099,1.01464,27.11
$IMU,5604.203,-0.244,-0.061,-0.183,0.01171,-0.02246,1.01074,27.11
$MAG,5604.206,-0.373,0.111,-0.871,26.1
$IMU,5604.206,-0.244,-0.122,-0.122,0.01269,-0.02343,1.01708,27.11
$IMU,5604.208,-0.244,-0.122,-0.122,0.00830,-0.02148,1.01464,27.11
$IMU,5604.210,-0.305,-0.183,-0.183,0.01464,-0.02392,1.01220,27.11
$IMU,5604.213,-0.366,0.000,-0.122,0.01269,-0.02001,1.01367,27.11
$IMU,5604.215,-0.488,0.061,-0.122,0.01220,-0.02441,1.01123,27.11
$MAG,5604.216,-0.375,0.106,-0.865,26.2
$IMU,5604.217,-0.305,-0.061,-0.061,0.01269,-0.02050,1.01464,27.11
$IMU,5604.220,-0.305,-0.183,-0.061,0.01318,-0.02197,1.01269,27.13
$IMU,5604.222,-0.366,-0.183,-0.122,0.01855,-0.02294,1.01367,27.13
$IMU,5604.224,-0.366,-0.061,-0.183,0.01464,-0.02099,1.01708,27.13
$MAG,5604.226,-0.376,0.109,-0.870,26.1
$IMU,5604.227,-0.366,-0.061,-0.183,0.01367,-0.02197,1.01367,27.13
$IMU,5604.229,-0.366,-0.183,-0.183,0.01269,-0.02294,1.01220,27.13
$IMU,5604.231,-0.366,-0.061,-0.122,0.01074,-0.02050,1.01367,27.13
$IMU,5604.234,-0.366,-0.183,-0.122,0.01123,-0.02197,1.01074,27.13
$MAG,5604.236,-0.372,0.108,-0.870,26.1
$IMU,5604.236,-0.366,0.000,-0.122,0.01025,-0.02099,1.01464,27.13
$IMU,5604.238,-0.488,0.061,-0.183,0.01074,-0.02197,1.01904,27.13
$IMU,5604.241,-0.488,-0.061,-0.122,0.01074,-0.02099,1.01269,27.13
$IMU,5604.243,-0.427,-0.122,-0.183,0.01416,-0.02148,1.01367,27.13
$IMU,5604.245,-0.366,-0.061,-0.122,0.00878,-0.02392,1.01464,27.13
$MAG,5604.246,-0.376,0.103,-0.867,26.1
$IMU,5604.248,-0.366,-0.061,-0.122,0.01269,-0.02001,1.01416,27.13
$IMU,5604.250,-0.366,0.000,-0.061,0.01562,-0.02148,1.01269,27.13
$IMU,5604.252,-0.366,-0.061,-0.183,0.01220,-0.02197,1.01562,27.13
$IMU,5604.255,-0.366,0.000,-0.183,0.01367,-0.02001,1.01464,27.13
$MAG,5604.256,-0.372,0.108,-0.870,26.1
$IMU,5604.257,-0.244,-0.244,-0.183,0.01171,-0.02148,1.01464,27.11
$IMU,5604.259,-0.305,-0.244,-0.183,0.01562,-0.02294,1.01513,27.11
$IMU,5604.262,-0.366,-0.122,-0.122,0.01318,-0.02001,1.01464,27.11
$IMU,5604.264,-0.366,-0.183,-0.122,0.01269,-0.02392,1.01123,27.11
$MAG,5604.266,-0.378,0.115,-0.870,26.1
$BARO,5604.267,86792.72,27.37
$IMU,5604.267,-0.488,0.000,-0.122,0.01464,-0.02001,1.01806,27.11
$IMU,5604.269,-0.488,0.122,-0.122,0.01367,-0.02001,1.01220,27.11
$IMU,5604.271,-0.305,-0.061,-0.183,0.01220,-0.02197,1.01220,27.11
$IMU,5604.274,-0.305,-0.061,-0.183,0.01318,-0.01953,1.01562,27.11
$MAG,5604.276,-0.372,0.106,-0.871,26.1
$IMU,5604.276,-0.549,0.183,-0.122,0.01367,-0.02392,1.01464,27.12
$IMU,5604.278,-0.427,0.183,-0.183,0.01416,-0.01513,1.01416,27.12
$IMU,5604.281,-0.366,-0.061,-0.122,0.01416,-0.02148,1.01513,27.12
$IMU,5604.283,-0.366,-0.061,-0.122,0.01562,-0.02001,1.01953,27.12
$IMU,5604.285,-0.427,0.000,-0.122,0.01660,-0.02050,1.01562,27.12
$MAG,5604.286,-0.372,0.102,-0.879,26.3
$IMU,5604.288,-0.549,0.244,-0.122,0.01123,-0.02343,1.00927,27.12
$IMU,5604.290,-0.366,-0.061,-0.122,0.01318,-0.01708,1.01806,27.12
$IMU,5604.292,-0.366,-0.122,-0.183,0.01171,-0.02490,1.01562,27.12
$IMU,5604.295,-0.244,-0.244,-0.183,0.01220,-0.02441,1.01611,27.14
$MAG,5604.296,-0.376,0.109,-0.867,26.2
$IMU,5604.297,-0.366,-0.061,-0.122,0.00976,-0.02343,1.00927,27.14
$IMU,5604.299,-0.427,-0.061,-0.122,0.01416,-0.02294,1.02148,27.14
$IMU,5604.302,-0.427,-0.061,-0.183,0.01074,-0.01953,1.01367,27.14
$IMU,5604.304,-0.244,-0.366,-0.183,0.01025,-0.02148,1.01123,27.14
$IMU,5604.306,-0.427,-0.122,-0.183,0.01562,-0.02099,1.02490,27.14
$MAG,5604.307,-0.372,0.111,-0.873,26.1
$IMU,5604.309,-0.427,-0.244,-0.122,0.01123,-0.02441,1.00830,27.14
$IMU,5604.311,-0.427,-0.061,-0.061,0.01513,-0.02001,1.02246,27.14
$IMU,5604.313,-0.488,-0.122,-0.122,0.01074,-0.02392,1.01171,27.14
$IMU,5604.316,-0.488,-0.061,-0.122,0.01367,-0.02246,1.01757,27.14
$MAG,5604.317,-0.379,0.105,-0.861,26.1
$IMU,5604.318,-0.427,0.000,-0.061,0.01171,-0.02294,1.01318,27.14
$IMU,5604.320,-0.488,-0.061,-0.122,0.01220,-0.02099,1.01562,27.14
$IMU,5604.323,-0.427,-0.122,-0.122,0.01416,-0.02441,1.00976,27.14
$IMU,5604.325,-0.488,-0.122,-0.122,0.01025,-0.01904,1.01855,27.14
$MAG,5604.327,-0.372,0.099,-0.876,26.1
$IMU,5604.327,-0.488,-0.122,-0.061,0.01318,-0.02246,1.01269,27.14
$IMU,5604.330,-0.549,0.061,-0.122,0.01562,-0.02246,1.01123,27.14
$IMU,5604.332,-0.427,0.000,-0.122,0.01367,-0.02294,1.01318,27.13
$IMU,5604.335,-0.549,-0.061,-0.061,0.01269,-0.02001,1.01416,27.13
$MAG,5604.337,-0.367,0.106,-0.864,26.1
$IMU,5604.337,-0.549,-0.061,-0.122,0.01611,-0.02050,1.01757,27.13
$IMU,5604.339,-0.488,0.000,-0.122,0.01220,-0.02441,1.01611,27.13
$IMU,5604.342,-0.549,0.061,-0.122,0.01367,-0.01708,1.01464,27.13
$IMU,5604.344,-0.549,0.061,-0.122,0.01562,-0.02343,1.01953,27.13
$IMU,5604.346,-0.427,-0.061,-0.122,0.01660,-0.02685,1.01708,27.13
$MAG,5604.347,-0.373,0.103,-0.862,26.1
$IMU,5604.349,-0.488,-0.061,-0.122,0.01562,-0.02197,1.01513,27.13
$IMU,5604.351,-0.427,-0.244,-0.122,0.01220,-0.02246,1.01074,27.12
$IMU,5604.353,-0.549,0.061,-0.122,0.01562,-0.02148,1.01953,27.12
$IMU,5604.356,-0.610,0.183,-0.183,0.01660,-0.02734,1.01025,27.12
$MAG,5604.357,-0.373,0.115,-0.867,26.1
$IMU,5604.358,-0.549,0.061,-0.122,0.01269,-0.02099,1.01318,27.12
$IMU,5604.360,-0.610,0.244,-0.122,0.01318,-0.02490,1.01123,27.12
$IMU,5604.363,-0.488,-0.122,-0.061,0.01660,-0.01953,1.02197,27.12
$IMU,5604.365,-0.671,0.061,-0.122,0.01074,-0.02490,1.01025,27.12
$MAG,5604.367,-0.367,0.105,-0.870,26.1
$IMU,5604.367,-0.549,0.061,-0.122,0.01464,-0.02099,1.01611,27.12
$BARO,5604.368,86795.52,27.37
$IMU,5604.370,-0.610,0.000,-0.183,0.01318,-0.02148,1.01367,27.11
$IMU,5604.372,-0.671,0.000,-0.183,0.01367,-0.02001,1.01416,27.11
$IMU,5604.374,-0.549,0.000,-0.122,0.01269,-0.02490,1.02001,27.11
$MAG,5604.377,-0.378,0.117,-0.867,26.2
$IMU,5604.377,-0.488,-0.183,-0.183,0.01416,-0.02001,1.01806,27.11
$IMU,5604.379,-0.671,0.122,-0.183,0.01269,-0.02734,1.00488,27.11
$IMU,5604.381,-0.549,-0.061,-0.061,0.01611,-0.01660,1.02099,27.11
$IMU,5604.384,-0.671,0.061,-0.183,0.01269,-0.02832,1.01123,27.11
$IMU,5604.386,-0.549,-0.061,-0.122,0.01757,-0.02099,1.02050,27.11
$MAG,5604.387,-0.370,0.103,-0.862,26.1
$IMU,5604.388,-0.793,0.244,-0.061,0.01318,-0.02392,1.01367,27.17
$IMU,5604.391,-0.427,-0.244,-0.122,0.01855,-0.01562,1.02001,27.17
$IMU,5604.393,-0.610,0.000,-0.183,0.01074,-0.02490,1.01513,27.17
$IMU,5604.396,-0.671,0.061,-0.061,0.01074,-0.01904,1.01513,27.17
$MAG,5604.397,-0.363,0.111,-0.871,26.1
$IMU,5604.398,-0.549,-0.061,-0.122,0.01367,-0.02490,1.01464,27.17
$IMU,5604.400,-0.671,0.183,-0.122,0.01318,-0.01953,1.01318,27.17
$IMU,5604.403,-0.610,-0.061,-0.183,0.01416,-0.02197,1.01269,27.17
$IMU,5604.405,-0.549,-0.061,-0.122,0.01123,-0.01855,1.02001,27.17
$MAG,5604.407,-0.370,0.103,-0.870,26.2
$IMU,5604.407,-0.610,0.122,-0.122,0.01367,-0.02636,1.01171,27.09
$IMU,5604.410,-0.732,0.000,-0.122,0.00927,-0.01708,1.01611,27.09
$IMU,5604.412,-0.610,0.183,-0.122,0.01269,-0.02441,1.01416,27.09
$HUM,5604.413,38.1,27.8
$IMU,5604.414,-0.671,0.244,-0.122,0.00927,-0.02587,1.01123,27.09
$MAG,5604.417,-0.372,0.111,-0.868,26.3
$IMU,5604.417,-0.549,-0.061,-0.122,0.01318,-0.02050,1.01855,27.09
$IMU,5604.419,-0.610,0.122,-0.122,0.01220,-0.02197,1.01513,27.09
$IMU,5604.421,-0.488,0.061,-0.122,0.01367,-0.02099,1.01269,27.09
$IMU,5604.424,-0.488,0.000,-0.183,0.01220,-0.02246,1.01367,27.09
$IMU,5604.426,-0.427,-0.183,-0.122,0.01318,-0.02685,1.01269,27.12
$MAG,5604.427,-0.372,0.108,-0.870,26.1
$IMU,5604.428,-0.549,0.122,-0.122,0.01562,-0.02294,1.01367,27.12
$IMU,5604.431,-0.305,-0.122,-0.061,0.01464,-0.02343,1.01171,27.12
$IMU,5604.433,-0.488,0.122,-0.122,0.01171,-0.02099,1.01513,27.12
$IMU,5604.435,-0.366,-0.061,-0.122,0.01367,-0.02392,1.01318,27.12
$MAG,5604.438,-0.381,0.108,-0.871,26.1
$IMU,5604.438,-0.427,0.000,-0.183,0.01318,-0.02197,1.01513,27.12
$IMU,5604.440,-0.427,-0.061,-0.183,0.01074,-0.02441,1.01562,27.12
$IMU,5604.442,-0.366,-0.061,-0.183,0.01220,-0.02490,1.01464,27.12
$IMU,5604.445,-0.427,-0.061,-0.122,0.01171,-0.02246,1.01318,27.10
$IMU,5604.447,-0.427,0.244,-0.183,0.01123,-0.02197,1.01367,27.10
$MAG,5604.448,-0.379,0.109,-0.867,26.2
$IMU,5604.449,-0.427,0.061,-0.183,0.01416,-0.01855,1.01318,27.10
$IMU,5604.452,-0.366,0.000,-0.122,0.01416,-0.02050,1.01318,27.10
$IMU,5604.454,-0.244,-0.183,-0.183,0.01074,-0.02246,1.01464,27.10
$IMU,5604.457,-0.366,-0.122,-0.122,0.01416,-0.02050,1.01757,27.10
$MAG,5604.458,-0.376,0.103,-0.871,26.1
$IMU,5604.459,-0.244,-0.061,-0.122,0.01416,-0.02246,1.01367,27.10
$IMU,5604.461,-0.305,0.000,-0.122,0.01220,-0.02148,1.01562,27.10
$IMU,5604.464,-0.305,-0.061,-0.183,0.01220,-0.02197,1.01416,27.16
$IMU,5604.466,-0.305,-0.183,-0.122,0.01318,-0.02294,1.01416,27.16
$MAG,5604.468,-0.373,0.100,-0.882,26.1
$IMU,5604.468,-0.305,0.000,-0.122,0.01416,-0.02490,1.01660,27.16
$BARO,5604.469,86789.96,27.36
$IMU,5604.471,-0.183,-0.305,-0.183,0.01171,-0.02636,1.01464,27.16
$IMU,5604.473,-0.305,-0.061,-0.183,0.01318,-0.01953,1.01660,27.16
$IMU,5604.475,-0.305,-0.061,-0.122,0.01513,-0.02246,1.01416,27.16
$MAG,5604.478,-0.366,0.109,-0.868,26.1
$IMU,5604.478,-0.366,-0.122,-0.061,0.01513,-0.02441,1.01464,27.16
$IMU,5604.480,-0.366,0.000,-0.122,0.01416,-0.02246,1.01562,27.16
$IMU,5604.482,-0.183,-0.122,-0.122,0.01318,-0.02392,1.01416,27.16
$IMU,5604.485,-0.244,-0.183,-0.122,0.01416,-0.02246,1.01220,27.16
$IMU,5604.487,-0.427,0.122,-0.122,0.01611,-0.02539,1.01367,27.16
$MAG,5604.488,-0.373,0.103,-0.874,26.2
$IMU,5604.489,-0.427,0.244,-0.183,0.01562,-0.02490,1.01513,27.16
$IMU,5604.492,-0.305,-0.061,-0.122,0.01367,-0.02392,1.01562,27.16
$IMU,5604.494,-0.244,-0.122,-0.122,0.01318,-0.01904,1.01611,27.16
$IMU,5604.496,-0.122,-0.366,-0.122,0.01318,-0.02197,1.01513,27.16
$MAG,5604.498,-0.367,0.106,-0.865,26.1
$IMU,5604.499,-0.305,-0.122,-0.122,0.01416,-0.02001,1.01611,27.16
$IMU,5604.501,-0.305,-0.061,-0.183,0.01611,-0.02441,1.01611,27.14
$IMU,5604.503,-0.305,-0.122,-0.122,0.01416,-0.02294,1.01367,27.14
$IMU,5604.506,-0.427,0.122,-0.122,0.01464,-0.02050,1.01513,27.14
$MAG,5604.508,-0.370,0.105,-0.868,26.3
$IMU,5604.508,-0.244,-0.244,-0.122,0.01123,-0.02148,1.01367,27.14
$IMU,5604.510,-0.305,-0.061,-0.122,0.01660,-0.02636,1.01318,27.14
$IMU,5604.513,-0.366,-0.122,-0.061,0.01220,-0.02636,1.01416,27.14
$IMU,5604.515,-0.366,0.000,-0.122,0.01171,-0.02294,1.01074,27.14
$MAG,5604.518,-0.367,0.106,-0.864,26.1
$IMU,5604.518,-0.427,0.122,-0.122,0.01318,-0.02294,1.01318,27.14
$IMU,5604.520,-0.305,-0.061,-0.122,0.01074,-0.02001,1.01513,27.16
$IMU,5604.522,-0.244,-0.122,-0.122,0.01367,-0.01904,1.01367,27.16
$IMU,5604.525,-0.305,0.000,-0.183,0.01074,-0.02294,1.01367,27.16
$IMU,5604.527,-0.366,0.000,-0.183,0.01220,-0.02490,1.01367,27.16
$MAG,5604.528,-0.372,0.106,-0.873,26.2
$IMU,5604.529,-0.305,0.061,-0.122,0.01416,-0.02050,1.01318,27.16
$IMU,5604.532,-0.305,-0.061,-0.122,0.01220,-0.02294,1.01367,27.16
$IMU,5604.534,-0.305,-0.061,-0.183,0.01367,-0.02246,1.01513,27.16
$IMU,5604.536,-0.305,-0.061,-0.122,0.01562,-0.02050,1.01416,27.16
$MAG,5604.538,-0.375,0.103,-0.864,26.2
$IMU,5604.539,-0.244,-0.122,-0.183,0.01464,-0.02246,1.01416,27.14
$IMU,5604.541,-0.244,-0.061,-0.122,0.01269,-0.02294,1.01757,27.14
$IMU,5604.543,-0.244,0.000,-0.183,0.00976,-0.02246,1.01367,27.14
$IMU,5604.546,-0.244,-0.122,-0.183,0.01562,-0.02099,1.01562,27.14
$MAG,5604.548,-0.373,0.111,-0.859,26.1
$IMU,5604.548,-0.183,-0.305,-0.122,0.01416,-0.02001,1.01464,27.14
$IMU,5604.550,-0.244,-0.122,-0.183,0.01171,-0.02099,1.01562,27.14
$IMU,5604.553,-0.366,-0.061,-0.183,0.00830,-0.02001,1.01611,27.14
$IMU,5604.555,-0.244,0.000,-0.183,0.01074,-0.02001,1.01464,27.14
$IMU,5604.557,-0.305,-0.061,-0.183,0.01269,-0.02246,1.01513,27.15
$MAG,5604.558,-0.373,0.106,-0.873,26.1
$IMU,5604.560,-0.183,-0.122,-0.122,0.01220,-0.02246,1.01416,27.15
$IMU,5604.562,-0.305,0.000,-0.183,0.01318,-0.02490,1.01464,27.15
$IMU,5604.564,-0.305,-0.061,-0.183,0.01464,-0.02587,1.01269,27.15
$IMU,5604.567,-0.366,0.122,-0.122,0.01367,-0.02392,1.01416,27.15
$MAG,5604.569,-0.369,0.111,-0.864,26.2
$IMU,5604.569,-0.305,0.000,-0.122,0.01562,-0.02587,1.01416,27.15
$BARO,5604.571,86792.96,27.36
$IMU,5604.571,-0.244,-0.061,-0.183,0.01464,-0.02490,1.01318,27.15
$IMU,5604.574,-0.305,0.000,-0.122,0.01318,-0.02148,1.01757,27.15
$IMU,5604.576,-0.244,-0.122,-0.183,0.01123,-0.02050,1.01464,27.10
$MAG,5604.579,-0.370,0.102,-0.871,26.2
$IMU,5604.579,-0.244,0.000,-0.122,0.01855,-0.02197,1.01562,27.10
$IMU,5604.581,-0.305,-0.061,-0.183,0.01464,-0.02490,1.01513,27.10
$IMU,5604.583,-0.305,-0.061,-0.183,0.01367,-0.02294,1.01464,27.10
$IMU,5604.586,-0.244,-0.061,-0.183,0.01464,-0.02343,1.01513,27.10
$IMU,5604.588,-0.244,-0.122,-0.122,0.01318,-0.02343,1.01708,27.10
$MAG,5604.589,-0.373,0.111,-0.870,26.1
$IMU,5604.590,-0.305,-0.061,-0.122,0.01269,-0.02148,1.01708,27.10
$IMU,5604.593,-0.305,0.000,-0.122,0.01074,-0.02441,1.01416,27.10
$IMU,5604.595,-0.244,-0.061,-0.122,0.01513,-0.02197,1.01513,27.12
$IMU,5604.597,-0.183,-0.122,-0.122,0.01416,-0.02099,1.01318,27.12
$MAG,5604.599,-0.376,0.114,-0.867,26.1
$IMU,5604.600,-0.305,-0.122,-0.183,0.01025,-0.02294,1.01416,27.12
$IMU,5604.602,-0.305,0.061,-0.183,0.01416,-0.02246,1.01269,27.12
$IMU,5604.604,-0.305,0.000,-0.183,0.01513,-0.02294,1.01220,27.12
$IMU,5604.607,-0.305,0.061,-0.122,0.01220,-0.02050,1.01220,27.12
$MAG,5604.609,-0.370,0.099,-0.873,26.2
$IMU,5604.609,-0.305,-0.061,-0.183,0.01123,-0.01904,1.01806,27.12
$IMU,5604.611,-0.305,-0.122,-0.122,0.01318,-0.02343,1.01562,27.12
$IMU,5604.614,-0.305,0.000,-0.061,0.01220,-0.02343,1.01416,27.15
$IMU,5604.616,-0.244,0.000,-0.122,0.01269,-0.02343,1.01367,27.15
$IMU,5604.618,-0.427,0.122,-0.122,0.01074,-0.02148,1.01562,27.15
$MAG,5604.619,-0.372,0.111,-0.876,26.2
$IMU,5604.621,-0.305,-0.061,-0.122,0.01513,-0.02294,1.01269,27.15
$IMU,5604.623,-0.244,-0.061,-0.183,0.01318,-0.02148,1.01269,27.15
$IMU,5604.625,-0.244,-0.122,-0.122,0.01269,-0.02148,1.01464,27.15
$IMU,5604.628,-0.305,-0.061,-0.122,0.01513,-0.02148,1.01562,27.15
$MAG,5604.629,-0.369,0.103,-0.871,26.1
$IMU,5604.630,-0.244,0.000,-0.122,0.01464,-0.02587,1.01757,27.15
$IMU,5604.632,-0.305,0.000,-0.183,0.01269,-0.02539,1.01464,27.12
$IMU,5604.635,-0.305,-0.122,-0.183,0.01171,-0.02441,1.01660,27.12
$IMU,5604.637,-0.305,-0.061,-0.122,0.01269,-0.02685,1.01416,27.12
$MAG,5604.639,-0.373,0.108,-0.864,26.2
$IMU,5604.639,-0.427,0.061,-0.122,0.01220,-0.02246,1.01708,27.12
$IMU,5604.642,-0.366,0.183,-0.122,0.01171,-0.02197,1.01611,27.12
$IMU,5604.644,-0.305,0.000,-0.183,0.01367,-0.02148,1.01367,27.12
$IMU,5604.647,-0.305,0.061,-0.183,0.01416,-0.02294,1.01416,27.12
$MAG,5604.649,-0.375,0.105,-0.865,26.1
$IMU,5604.649,-0.366,0.061,-0.183,0.01464,-0.02392,1.01416,27.12
$IMU,5604.651,-0.244,0.000,-0.183,0.01220,-0.02343,1.01220,27.13
$IMU,5604.654,-0.244,-0.061,-0.122,0.01318,-0.02197,1.01416,27.13
$IMU,5604.656,-0.244,0.000,-0.183,0.01269,-0.02587,1.01513,27.13
$IMU,5604.658,-0.305,-0.061,-0.122,0.01416,-0.02294,1.01611,27.13
$MAG,5604.659,-0.375,0.103,-0.868,26.2
$IMU,5604.661,-0.244,-0.061,-0.061,0.01562,-0.02099,1.01562,27.13
$IMU,5604.663,-0.305,-0.061,-0.061,0.01416,-0.01953,1.01562,27.13
$IMU,5604.665,-0.305,-0.061,-0.183,0.01318,-0.02392,1.01220,27.13
$IMU,5604.668,-0.305,-0.061,-0.061,0.01269,-0.02441,1.01513,27.13
$MAG,5604.669,-0.372,0.108,-0.862,26.2
$IMU,5604.670,-0.305,0.061,-0.183,0.01171,-0.02148,1.01269,27.19
$BARO,5604.672,86796.37,27.36
$IMU,5604.672,-0.305,0.061,-0.122,0.01171,-0.02148,1.01367,27.19
$IMU,5604.675,-0.305,0.061,-0.122,0.01025,-0.02441,1.01611,27.19
$IMU,5604.677,-0.244,-0.183,-0.122,0.01074,-0.02197,1.01562,27.19
$MAG,5604.679,-0.370,0.108,-0.871,26.1
$IMU,5604.679,-0.244,0.000,-0.183,0.01171,-0.01855,1.01611,27.19
$IMU,5604.682,-0.305,0.061,-0.122,0.01025,-0.02246,1.01416,27.19
$IMU,5604.684,-0.305,-0.061,-0.061,0.01025,-0.02246,1.01367,27.19
$IMU,5604.686,-0.366,0.122,-0.183,0.01464,-0.02343,1.01318,27.19
$IMU,5604.689,-0.366,0.183,-0.183,0.01220,-0.02343,1.01171,27.14
$MAG,5604.690,-0.369,0.106,-0.870,26.2
$IMU,5604.691,-0.244,-0.061,-0.183,0.01171,-0.02246,1.01416,27.14
$IMU,5604.693,-0.244,0.000,-0.183,0.01318,-0.02294,1.01464,27.14
$IMU,5604.696,-0.305,0.000,-0.122,0.01708,-0.02490,1.01318,27.14
$IMU,5604.698,-0.305,0.000,-0.122,0.01416,-0.02392,1.01367,27.14
$MAG,5604.700,-0.372,0.106,-0.871,26.1
$IMU,5604.700,-0.244,-0.183,-0.122,0.01416,-0.02587,1.01416,27.14
$IMU,5604.703,-0.244,0.000,-0.183,0.01367,-0.02539,1.01220,27.14
$IMU,5604.705,-0.366,0.122,-0.122,0.01220,-0.02343,1.01269,27.14
$IMU,5604.708,-0.366,0.061,-0.122,0.01464,-0.02197,1.01318,27.17
$MAG,5604.710,-0.375,0.109,-0.867,26.2
$IMU,5604.710,-0.244,-0.061,-0.122,0.01123,-0.02099,1.01562,27.17
$IMU,5604.712,-0.305,0.000,-0.122,0.01171,-0.02050,1.01562,27.17
$IMU,5604.715,-0.366,0.000,-0.122,0.01611,-0.02148,1.01416,27.17
$IMU,5604.717,-0.305,-0.061,-0.122,0.01464,-0.02050,1.01416,27.17
$IMU,5604.719,-0.305,0.000,-0.183,0.01660,-0.02587,1.01318,27.17
$MAG,5604.720,-0.373,0.109,-0.865,26.1
$IMU,5604.722,-0.366,0.061,-0.122,0.01220,-0.02197,1.01269,27.17
$IMU,5604.724,-0.244,-0.061,-0.183,0.01171,-0.02148,1.01660,27.17
$IMU,5604.726,-0.305,0.000,-0.244,0.01269,-0.02050,1.01367,27.13
$IMU,5604.729,-0.366,0.000,-0.183,0.01806,-0.02246,1.01562,27.13
$MAG,5604.730,-0.369,0.112,-0.874,26.2
$IMU,5604.731,-0.244,-0.122,-0.122,0.01220,-0.02294,1.01513,27.13
$IMU,5604.733,-0.305,-0.061,-0.061,0.01220,-0.02392,1.01513,27.13
$IMU,5604.736,-0.305,0.000,-0.183,0.01367,-0.02490,1.01660,27.13
$IMU,5604.738,-0.305,-0.061,-0.122,0.01416,-0.02148,1.01757,27.13
$MAG,5604.740,-0.372,0.108,-0.877,26.3
$IMU,5604.740,-0.122,-0.244,-0.122,0.01562,-0.02050,1.01318,27.13
$IMU,5604.743,-0.244,-0.122,-0.183,0.01562,-0.02441,1.01464,27.13
$IMU,5604.745,-0.366,0.122,-0.122,0.01464,-0.02148,1.01513,27.12
$IMU,5604.747,-0.305,0.000,-0.122,0.01318,-0.02490,1.01660,27.12
$MAG,5604.750,-0.378,0.105,-0.868,26.3
$IMU,5604.750,-0.366,0.061,-0.183,0.01513,-0.02685,1.01562,27.12
$IMU,5604.752,-0.305,0.000,-0.183,0.01171,-0.02050,1.01562,27.12
$IMU,5604.754,-0.244,-0.061,-0.122,0.01220,-0.02246,1.01318,27.12
$IMU,5604.757,-0.244,-0.244,-0.183,0.01416,-0.02441,1.01611,27.12
$IMU,5604.759,-0.366,0.061,-0.122,0.01562,-0.02246,1.01367,27.12
$MAG,5604.760,-0.370,0.108,-0.871,26.1
$IMU,5604.761,-0.305,0.000,-0.183,0.01123,-0.02197,1.01757,27.12
$IMU,5604.764,-0.244,-0.061,-0.183,0.01367,-0.02294,1.01611,27.15
$IMU,5604.766,-0.122,-0.244,-0.122,0.01074,-0.02294,1.01562,27.15
$IMU,5604.769,-0.183,-0.122,-0.061,0.01416,-0.02441,1.01855,27.15
$MAG,5604.770,-0.375,0.109,-0.870,26.1
$IMU,5604.771,-0.183,-0.183,-0.244,0.01367,-0.02246,1.01611,27.15
$IMU,5604.773,-0.244,-0.061,-0.183,0.01562,-0.02246,1.01367,27.15
$BARO,5604.774,86792.76,27.36
$IMU,5604.776,-0.366,0.122,-0.122,0.01269,-0.02441,1.01562,27.15
$IMU,5604.778,-0.305,0.061,-0.122,0.01611,-0.02001,1.01708,27.15
$MAG,5604.780,-0.372,0.108,-0.868,26.1
$IMU,5604.780,-0.183,-0.122,-0.061,0.01367,-0.02246,1.01464,27.15
$IMU,5604.783,-0.305,-0.061,-0.183,0.00976,-0.02148,1.01562,27.16
$IMU,5604.785,-0.366,0.244,-0.183,0.01318,-0.02001,1.01464,27.16
$IMU,5604.787,-0.427,0.122,-0.122,0.01464,-0.02050,1.01367,27.16
$MAG,5604.790,-0.367,0.108,-0.865,26.1
$IMU,5604.790,-0.366,0.122,-0.061,0.01220,-0.02343,1.01611,27.16
$IMU,5604.792,-0.244,-0.061,-0.061,0.01074,-0.02441,1.01464,27.16
$IMU,5604.794,-0.244,-0.061,-0.122,0.01269,-0.02587,1.01513,27.16
$IMU,5604.797,-0.183,-0.061,-0.183,0.01611,-0.02099,1.01611,27.16
$IMU,5604.799,-0.305,0.122,-0.122,0.01562,-0.02099,1.01660,27.16
$MAG,5604.800,-0.378,0.105,-0.874,26.1
$IMU,5604.801,-0.305,0.061,-0.122,0.00976,-0.02294,1.01757,27.16
$IMU,5604.804,-0.244,-0.061,-0.122,0.01416,-0.02197,1.01318,27.16
$IMU,5604.806,-0.183,-0.183,-0.122,0.01464,-0.02099,1.01171,27.16
$IMU,5604.808,-0.183,-0.183,-0.061,0.01318,-0.02099,1.01855,27.16
$MAG,5604.810,-0.373,0.106,-0.868,26.2
$IMU,5604.811,-0.183,-0.122,-0.122,0.01123,-0.02148,1.01513,27.16
$IMU,5604.813,-0.244,0.000,-0.122,0.01464,-0.02001,1.01318,27.16
$IMU,5604.815,-0.183,-0.122,-0.122,0.01318,-0.02294,1.01171,27.16
$IMU,5604.818,-0.183,-0.183,-0.122,0.01611,-0.02197,1.01513,27.16
$IMU,5604.820,-0.244,-0.122,-0.122,0.01513,-0.02343,1.01611,27.18
$MAG,5604.821,-0.373,0.108,-0.868,26.1
$IMU,5604.822,-0.244,-0.061,-0.122,0.01220,-0.02441,1.01660,27.18
$IMU,5604.825,-0.305,0.122,-0.122,0.01416,-0.02246,1.01074,27.18
$IMU,5604.827,-0.244,0.122,-0.122,0.01367,-0.02050,1.01416,27.18
$IMU,5604.830,-0.244,0.000,-0.122,0.01171,-0.02099,1.01367,27.18
$MAG,5604.831,-0.373,0.114,-0.868,26.2
$IMU,5604.832,-0.305,0.000,-0.122,0.01513,-0.02343,1.01464,27.18
$IMU,5604.834,-0.244,0.000,-0.183,0.01513,-0.02246,1.01220,27.18
$IMU,5604.837,-0.183,-0.122,-0.183,0.00927,-0.02099,1.01416,27.18
$IMU,5604.839,-0.244,-0.122,-0.122,0.01367,-0.01757,1.01318,27.16
$MAG,5604.841,-0.364,0.106,-0.871,26.1
$IMU,5604.841,-0.305,0.122,-0.183,0.01171,-0.02050,1.01367,27.16
$IMU,5604.844,-0.244,0.000,-0.244,0.01416,-0.02050,1.01123,27.16
$IMU,5604.846,-0.183,-0.183,-0.244,0.01416,-0.02392,1.01464,27.16
$IMU,5604.848,-0.244,0.000,-0.122,0.01464,-0.01953,1.01464,27.16
$MAG,5604.851,-0.376,0.112,-0.870,26.2
$IMU,5604.851,-0.183,0.000,-0.122,0.01123,-0.02148,1.01123,27.16
$IMU,5604.853,-0.244,0.000,-0.122,0.01464,-0.02148,1.01318,27.16
$IMU,5604.855,-0.305,0.000,-0.122,0.01562,-0.02246,1.01562,27.16
$IMU,5604.858,-0.305,0.061,-0.061,0.01464,-0.02099,1.01562,27.20
$IMU,5604.860,-0.244,0.000,-0.122,0.01171,-0.02294,1.01513,27.20
$MAG,5604.861,-0.376,0.106,-0.874,26.1
$IMU,5604.862,-0.305,0.000,-0.122,0.01220,-0.02294,1.01464,27.20
$IMU,5604.865,-0.305,0.000,-0.061,0.01171,-0.02197,1.01708,27.20
$IMU,5604.867,-0.244,-0.061,-0.122,0.00976,-0.02246,1.01513,27.20
$IMU,5604.869,-0.244,-0.061,-0.244,0.01513,-0.02490,1.01757,27.20
$MAG,5604.871,-0.372,0.105,-0.865,26.1
$IMU,5604.872,-0.305,-0.061,-0.183,0.01318,-0.02490,1.01611,27.20
$IMU,5604.874,-0.305,0.000,-0.122,0.01367,-0.02441,1.01562,27.20
$BARO,5604.875,86796.10,27.35
$IMU,5604.876,-0.305,-0.122,-0.183,0.01123,-0.02441,1.01611,27.11
$IMU,5604.879,-0.244,0.061,-0.122,0.01318,-0.02001,1.01171,27.11
$MAG,5604.881,-0.379,0.105,-0.877,26.1
$IMU,5604.881,-0.244,0.000,-0.061,0.01220,-0.02246,1.01220,27.11
$IMU,5604.883,-0.305,-0.122,-0.183,0.01562,-0.02490,1.01513,27.11
$IMU,5604.886,-0.244,-0.061,-0.183,0.01416,-0.02197,1.01513,27.11
$IMU,5604.888,-0.183,-0.122,-0.183,0.01513,-0.02539,1.01562,27.11
$IMU,5604.890,-0.244,0.061,-0.122,0.01464,-0.02148,1.01464,27.11
$MAG,5604.891,-0.367,0.109,-0.871,26.2
$IMU,5604.893,-0.244,0.000,-0.122,0.01464,-0.02099,1.01416,27.11
$IMU,5604.895,-0.244,0.000,-0.122,0.01074,-0.02441,1.01708,27.14
$IMU,5604.898,-0.305,0.000,-0.122,0.01269,-0.02246,1.01513,27.14
$IMU,5604.900,-0.183,-0.061,-0.183,0.01123,-0.02246,1.01513,27.14
$MAG,5604.901,-0.373,0.106,-0.879,26.1
$IMU,5604.902,-0.305,0.061,-0.183,0.01269,-0.02441,1.01513,27.14
$IMU,5604.905,-0.366,0.061,-0.183,0.01318,-0.02246,1.01464,27.14
$IMU,5604.907,-0.244,-0.061,-0.183,0.01220,-0.02441,1.01464,27.14
$IMU,5604.909,-0.305,0.061,-0.183,0.01220,-0.02197,1.01367,27.14
$MAG,5604.911,-0.373,0.105,-0.865,26.2
$IMU,5604.912,-0.244,0.000,-0.122,0.01464,-0.02197,1.01513,27.14
$IMU,5604.914,-0.244,0.000,0.000,0.01074,-0.02294,1.01513,27.14
$IMU,5604.916,-0.305,0.061,-0.183,0.01171,-0.02441,1.01318,27.14
$IMU,5604.919,-0.305,0.061,-0.183,0.01171,-0.02246,1.01660,27.14
$MAG,5604.921,-0.373,0.106,-0.868,26.2
$IMU,5604.921,-0.183,-0.183,-0.183,0.01025,-0.02539,1.01269,27.14
$IMU,5604.923,-0.244,-0.122,-0.061,0.01318,-0.02441,1.01660,27.14
$IMU,5604.926,-0.244,0.000,-0.122,0.01367,-0.02099,1.01611,27.14
$IMU,5604.928,-0.305,0.000,-0.183,0.01318,-0.02246,1.01562,27.14
$IMU,5604.930,-0.183,-0.122,-0.122,0.01269,-0.02392,1.01513,27.14
$MAG,5604.931,-0.373,0.111,-0.865,26.1
$IMU,5604.933,-0.244,0.000,-0.183,0.01220,-0.02441,1.01562,27.17
$IMU,5604.935,-0.244,0.000,-0.122,0.01611,-0.02441,1.01367,27.17
$IMU,5604.937,-0.305,0.061,-0.183,0.01611,-0.02294,1.01367,27.17
$IMU,5604.940,-0.183,-0.061,-0.122,0.01611,-0.02099,1.01464,27.17
$MAG,5604.941,-0.376,0.112,-0.870,26.2
$IMU,5604.942,-0.305,0.061,-0.183,0.01416,-0.02197,1.01416,27.17
$IMU,5604.944,-0.305,0.000,-0.244,0.01269,-0.02636,1.01660,27.17
$IMU,5604.947,-0.244,-0.061,-0.122,0.01367,-0.02197,1.01562,27.17
$IMU,5604.949,-0.244,0.000,-0.122,0.01220,-0.01953,1.01464,27.17
$IMU,5604.951,-0.183,-0.061,-0.122,0.01464,-0.02148,1.01220,27.18
$MAG,5604.952,-0.367,0.105,-0.870,26.2
$IMU,5604.954,-0.244,0.000,-0.122,0.01220,-0.02050,1.01367,27.18
$IMU,5604.956,-0.305,0.000,-0.122,0.01416,-0.02392,1.01611,27.18
$IMU,5604.959,-0.305,0.122,-0.122,0.01464,-0.02294,1.01708,27.18
$IMU,5604.961,-0.305,0.061,-0.183,0.01123,-0.02050,1.01513,27.18
$MAG,5604.962,-0.375,0.109,-0.868,26.2
$IMU,5604.963,-0.183,-0.061,-0.183,0.01318,-0.02148,1.01367,27.18
$IMU,5604.966,-0.244,0.000,-0.122,0.01074,-0.02490,1.01562,27.18
$IMU,5604.968,-0.244,0.061,-0.183,0.01074,-0.02392,1.01367,27.18
$IMU,5604.970,-0.244,-0.122,-0.122,0.00976,-0.02294,1.01269,27.19
$MAG,5604.972,-0.375,0.102,-0.871,26.1
$IMU,5604.973,-0.244,0.061,-0.122,0.01269,-0.02099,1.01171,27.19
$IMU,5604.975,-0.244,-0.061,-0.122,0.01367,-0.02294,1.01416,27.19
$BARO,5604.977,86798.25,27.36
$IMU,5604.977,-0.244,-0.061,-0.122,0.01074,-0.02490,1.01416,27.19
$IMU,5604.980,-0.183,-0.061,-0.122,0.01318,-0.02001,1.01318,27.19
$MAG,5604.982,-0.373,0.106,-0.861,26.2
$IMU,5604.982,-0.305,0.183,-0.122,0.01269,-0.02050,1.01269,27.19
$IMU,5604.984,-0.244,-0.061,-0.122,0.01367,-0.02197,1.01416,27.19
$IMU,5604.987,-0.122,-0.183,-0.183,0.01562,-0.02050,1.01660,27.19
$IMU,5604.989,-0.244,0.061,-0.122,0.01416,-0.02294,1.01660,27.17
$IMU,5604.991,-0.244,0.000,-0.122,0.01123,-0.02197,1.01611,27.17
$MAG,5604.992,-0.373,0.108,-0.873,26.2
$IMU,5604.994,-0.244,-0.061,-0.061,0.00927,-0.02148,1.01367,27.17
$IMU,5604.996,-0.183,-0.061,-0.122,0.01269,-0.02246,1.01367,27.17
$IMU,5604.998,-0.244,0.000,-0.122,0.01171,-0.02392,1.01416,27.17
$IMU,5605.001,-0.183,-0.244,-0.183,0.01171,-0.02441,1.01708,27.17
$MAG,5605.002,-0.373,0.106,-0.871,26.2
$IMU,5605.003,-0.183,-0.061,-0.122,0.01318,-0.02294,1.01660,27.17
$IMU,5605.005,-0.305,0.061,-0.183,0.01416,-0.02050,1.01318,27.17
$IMU,5605.008,-0.305,0.122,-0.183,0.01171,-0.02099,1.01367,27.12
$IMU,5605.010,-0.244,-0.061,-0.122,0.00927,-0.02197,1.01464,27.12
$MAG,5605.012,-0.367,0.112,-0.865,26.2
$IMU,5605.012,-0.305,0.000,-0.122,0.01220,-0.02148,1.01757,27.12
$IMU,5605.015,-0.244,-0.061,-0.183,0.01367,-0.02392,1.01562,27.12
$IMU,5605.017,-0.244,-0.122,-0.061,0.01318,-0.01855,1.01464,27.12
$IMU,5605.020,-0.244,0.000,-0.122,0.01416,-0.02148,1.01513,27.12
$IMU,5605.022,-0.366,0.122,-0.122,0.01123,-0.02294,1.01513,27.12
$MAG,5605.022,-0.373,0.117,-0.871,26.3
$IMU,5605.024,-0.244,-0.061,-0.122,0.00878,-0.02490,1.01513,27.12
$IMU,5605.027,-0.183,-0.244,-0.244,0.01367,-0.02197,1.01367,27.12
$IMU,5605.029,-0.244,-0.122,-0.122,0.01416,-0.02197,1.01416,27.12
$IMU,5605.031,-0.244,-0.061,-0.122,0.01464,-0.02539,1.01464,27.12
$MAG,5605.032,-0.373,0.103,-0.865,26.1
$IMU,5605.034,-0.305,-0.061,-0.122,0.01660,-0.02197,1.01562,27.12
$IMU,5605.036,-0.366,0.000,-0.122,0.01660,-0.02441,1.01513,27.12
$IMU,5605.038,-0.366,0.061,-0.183,0.01416,-0.02441,1.01562,27.12
$IMU,5605.041,-0.183,-0.061,-0.183,0.01367,-0.02587,1.01708,27.12
$MAG,5605.042,-0.375,0.111,-0.862,26.2
$IMU,5605.043,-0.305,0.000,-0.122,0.01025,-0.02392,1.01513,27.12
$IMU,5605.045,-0.366,0.183,-0.061,0.01269,-0.02246,1.01416,27.20
$IMU,5605.048,-0.366,0.183,-0.122,0.01171,-0.02148,1.01562,27.20
$IMU,5605.050,-0.305,0.122,-0.122,0.01562,-0.02294,1.01220,27.20
$MAG,5605.052,-0.372,0.112,-0.876,26.1
$IMU,5605.052,-0.244,0.000,-0.183,0.01611,-0.02148,1.01611,27.20
$IMU,5605.055,-0.244,-0.061,-0.183,0.01220,-0.02392,1.01318,27.20
$IMU,5605.057,-0.183,-0.122,-0.122,0.01171,-0.02441,1.01611,27.20
$IMU,5605.059,-0.305,0.000,-0.183,0.01074,-0.02685,1.01562,27.20
$MAG,5605.062,-0.372,0.112,-0.870,26.1
$IMU,5605.062,-0.305,0.061,-0.122,0.01367,-0.02539,1.01416,27.20
$IMU,5605.064,-0.244,-0.122,-0.183,0.01123,-0.02148,1.01464,27.19
$IMU,5605.066,-0.122,-0.305,-0.122,0.01318,-0.02343,1.01464,27.19
$IMU,5605.069,-0.244,-0.061,-0.122,0.01416,-0.02099,1.01562,27.19
$IMU,5605.071,-0.244,-0.061,-0.122,0.01416,-0.02050,1.01708,27.19
$IMU,5605.073,-0.366,0.000,-0.183,0.01318,-0.02441,1.01611,27.19
$MAG,5605.073,-0.369,0.109,-0.868,26.1
$IMU,5605.076,-0.305,0.122,-0.183,0.01220,-0.02441,1.01708,27.19
$BARO,5605.078,86802.27,27.36
$IMU,5605.078,-0.305,0.061,-0.183,0.00830,-0.02343,1.01269,27.19
$IMU,5605.081,-0.244,0.000,-0.183,0.01171,-0.02294,1.01464,27.19
$MAG,5605.083,-0.370,0.097,-0.874,26.1
$IMU,5605.083,-0.244,-0.061,-0.122,0.01171,-0.02392,1.01562,27.14
$IMU,5605.085,-0.244,0.061,-0.183,0.01318,-0.02050,1.01367,27.14
$IMU,5605.088,-0.305,0.000,-0.183,0.01269,-0.02636,1.01269,27.14
$IMU,5605.090,-0.183,0.000,-0.122,0.01367,-0.02441,1.01367,27.14
$IMU,5605.092,-0.366,0.000,-0.122,0.01171,-0.02392,1.01708,27.14
$MAG,5605.093,-0.375,0.103,-0.876,26.2
$IMU,5605.095,-0.244,0.061,-0.122,0.01367,-0.02001,1.01904,27.14
$IMU,5605.097,-0.305,-0.061,-0.122,0.01464,-0.02343,1.01416,27.14
$IMU,5605.099,-0.305,0.000,-0.183,0.01367,-0.02197,1.01513,27.14
$IMU,5605.102,-0.244,0.061,-0.122,0.01269,-0.02587,1.01562,27.17
$MAG,5605.103,-0.367,0.109,-0.873,26.2
$IMU,5605.104,-0.183,-0.061,-0.122,0.01562,-0.02490,1.01660,27.17
$IMU,5605.106,-0.122,-0.244,-0.183,0.01562,-0.02148,1.01611,27.17
$IMU,5605.109,-0.183,-0.122,-0.122,0.01611,-0.02099,1.01806,27.17
$IMU,5605.111,-0.244,-0.061,-0.183,0.01416,-0.02636,1.01513,27.17
$MAG,5605.113,-0.369,0.106,-0.871,26.1
$IMU,5605.113,-0.305,-0.061,-0.183,0.01367,-0.02392,1.01855,27.17
$IMU,5605.116,-0.244,-0.061,-0.061,0.01416,-0.02392,1.01806,27.17
$IMU,5605.118,-0.305,0.000,-0.122,0.01318,-0.02539,1.01171,27.17
$IMU,5605.120,-0.244,-0.061,-0.183,0.01318,-0.02441,1.01220,27.14
$MAG,5605.123,-0.378,0.100,-0.873,26.1
$IMU,5605.123,-0.183,-0.122,-0.122,0.01025,-0.02148,1.01562,27.14
$IMU,5605.125,-0.305,0.122,-0.122,0.01123,-0.02148,1.01220,27.14
$IMU,5605.127,-0.366,0.061,-0.122,0.01123,-0.02392,1.01464,27.14
$IMU,5605.130,-0.366,0.122,-0.122,0.00976,-0.02490,1.01562,27.14
$IMU,5605.132,-0.305,-0.061,-0.122,0.01171,-0.02148,1.01171,27.14
$VBAT,5605.132,4.145
$MAG,5605.133,-0.378,0.115,-0.859,26.2
$IMU,5605.134,-0.183,-0.122,-0.122,0.01367,-0.02050,1.01269,27.14
$IMU,5605.137,-0.183,-0.244,-0.122,0.00976,-0.02197,1.01464,27.14
$IMU,5605.139,-0.244,-0.061,-0.122,0.01123,-0.02099,1.01074,27.16
$IMU,5605.142,-0.183,-0.122,-0.122,0.01074,-0.02490,1.01416,27.16
$MAG,5605.143,-0.376,0.118,-0.874,26.2
$IMU,5605.144,-0.244,-0.061,-0.122,0.01318,-0.02343,1.01416,27.16
$IMU,5605.146,-0.122,-0.183,-0.061,0.01660,-0.02148,1.01318,27.16
$IMU,5605.149,-0.183,-0.183,-0.122,0.01367,-0.02148,1.01513,27.16
$IMU,5605.151,-0.244,-0.061,-0.183,0.00976,-0.02246,1.01513,27.16
$MAG,5605.153,-0.375,0.108,-0.868,26.2
$IMU,5605.153,-0.244,0.000,-0.122,0.01367,-0.02001,1.01562,27.16
$IMU,5605.156,-0.244,0.061,-0.122,0.01513,-0.02343,1.01660,27.16
$IMU,5605.158,-0.244,-0.061,-0.122,0.01220,-0.02343,1.01416,27.21
$IMU,5605.160,-0.244,0.000,-0.122,0.01416,-0.02050,1.01416,27.21
$MAG,5605.163,-0.375,0.105,-0.870,26.1
$IMU,5605.163,-0.244,0.000,-0.122,0.01416,-0.02636,1.01318,27.21
$IMU,5605.165,-0.244,0.000,-0.183,0.01318,-0.02099,1.01123,27.21
$IMU,5605.167,-0.183,0.000,-0.183,0.01171,-0.02148,1.01220,27.21
$IMU,5605.170,-0.305,0.061,-0.122,0.01220,-0.02343,1.01269,27.21
$IMU,5605.172,-0.244,-0.061,-0.183,0.01123,-0.02441,1.01416,27.21
$MAG,5605.173,-0.370,0.117,-0.873,26.1
$IMU,5605.174,-0.244,-0.122,-0.122,0.01220,-0.02099,1.01660,27.21
$IMU,5605.177,-0.183,-0.061,-0.183,0.01220,-0.02343,1.01464,27.19
$IMU,5605.179,-0.305,0.000,-0.183,0.01220,-0.02001,1.01611,27.19
$BARO,5605.180,86793.03,27.36
$IMU,5605.181,-0.183,-0.061,-0.183,0.01367,-0.02246,1.01220,27.19
$MAG,5605.183,-0.376,0.108,-0.868,26.2
$IMU,5605.184,-0.305,0.061,-0.183,0.01367,-0.02246,1.01318,27.19
$IMU,5605.186,-0.183,-0.122,-0.183,0.01269,-0.02392,1.01367,27.19
$IMU,5605.188,-0.183,-0.122,-0.122,0.01269,-0.02294,1.01416,27.19
$IMU,5605.191,-0.244,0.061,-0.183,0.00976,-0.02392,1.01660,27.19
$MAG,5605.193,-0.375,0.109,-0.879,26.2
$IMU,5605.193,-0.244,-0.061,-0.122,0.01416,-0.02294,1.01464,27.19
$IMU,5605.195,-0.244,-0.061,-0.122,0.01269,-0.02490,1.01513,27.12
$IMU,5605.198,-0.183,-0.061,-0.122,0.01220,-0.02392,1.01513,27.12
$IMU,5605.200,-0.122,-0.244,-0.183,0.01367,-0.02099,1.01416,27.12
$IMU,5605.202,-0.183,-0.122,-0.183,0.01464,-0.02197,1.01562,27.12
$MAG,5605.204,-0.364,0.115,-0.867,26.1
$IMU,5605.205,-0.244,0.000,-0.122,0.01220,-0.02343,1.01708,27.12
$IMU,5605.207,-0.305,-0.061,-0.122,0.00976,-0.02197,1.01611,27.12
$IMU,5605.210,-0.122,-0.183,-0.183,0.01074,-0.02148,1.01611,27.12
$IMU,5605.212,-0.183,-0.061,-0.183,0.01269,-0.02343,1.01416,27.12
$MAG,5605.214,-0.378,0.103,-0.871,26.2
$IMU,5605.214,-0.244,-0.061,-0.122,0.01171,-0.02294,1.01220,27.18
$IMU,5605.217,-0.244,-0.122,-0.183,0.01513,-0.02197,1.01269,27.18
$IMU,5605.219,-0.244,0.061,-0.061,0.01416,-0.02392,1.01660,27.18
$IMU,5605.221,-0.366,0.183,-0.122,0.01464,-0.02294,1.01513,27.18
$MAG,5605.224,-0.370,0.109,-0.865,26.2
$IMU,5605.224,-0.305,0.000,-0.122,0.01708,-0.02148,1.01220,27.18
$IMU,5605.226,-0.183,-0.061,-0.183,0.01611,-0.02001,1.01269,27.18
$IMU,5605.228,-0.183,-0.122,-0.122,0.01123,-0.02050,1.01367,27.18
$IMU,5605.231,-0.305,0.000,-0.061,0.01123,-0.02197,1.01416,27.18
$IMU,5605.233,-0.305,0.000,-0.122,0.01025,-0.02197,1.01708,27.19
$MAG,5605.234,-0.373,0.111,-0.871,26.2
$IMU,5605.235,-0.305,-0.122,-0.061,0.01269,-0.02441,1.01513,27.19
$IMU,5605.238,-0.183,-0.122,-0.122,0.01318,-0.02539,1.01318,27.19
$IMU,5605.240,-0.183,-0.183,-0.122,0.01220,-0.02392,1.01611,27.19
$IMU,5605.242,-0.244,-0.122,-0.183,0.01025,-0.02246,1.01611,27.19
$MAG,5605.244,-0.376,0.105,-0.867,26.1
$IMU,5605.245,-0.244,0.000,-0.122,0.00927,-0.02148,1.01660,27.19
$IMU,5605.247,-0.244,-0.183,-0.122,0.01367,-0.02343,1.01660,27.19
$IMU,5605.249,-0.244,0.061,-0.122,0.01220,-0.02392,1.01660,27.19
$IMU,5605.252,-0.244,-0.122,-0.061,0.01513,-0.02539,1.01904,27.18
$MAG,5605.254,-0.361,0.100,-0.870,26.1
$IMU,5605.254,-0.305,0.000,-0.122,0.01416,-0.02294,1.01708,27.18
$IMU,5605.256,-0.183,-0.061,-0.183,0.01513,-0.02636,1.01660,27.18
$IMU,5605.259,-0.305,0.000,-0.183,0.01123,-0.02392,1.01220,27.18
$IMU,5605.261,-0.366,0.061,-0.183,0.01562,-0.02392,1.01513,27.18
$IMU,5605.263,-0.244,0.000,-0.183,0.01464,-0.02441,1.01220,27.18
$MAG,5605.264,-0.378,0.109,-0.867,26.2
$IMU,5605.266,-0.244,-0.061,-0.122,0.01416,-0.02294,1.01367,27.18
$IMU,5605.268,-0.305,0.000,-0.122,0.01318,-0.01904,1.01513,27.18
$IMU,5605.271,-0.305,0.000,-0.122,0.01318,-0.01904,1.01708,27.15
$IMU,5605.273,-0.244,0.061,-0.061,0.01611,-0.01855,1.01513,27.15
$MAG,5605.274,-0.373,0.106,-0.865,26.2
$IMU,5605.275,-0.244,0.000,-0.061,0.01513,-0.02099,1.01464,27.15
$IMU,5605.278,-0.183,-0.061,-0.122,0.01513,-0.02392,1.01318,27.15
$IMU,5605.280,-0.244,-0.061,-0.183,0.01367,-0.02343,1.01562,27.15
$BARO,5605.281,86791.08,27.35
$IMU,5605.282,-0.244,-0.122,-0.122,0.01269,-0.02490,1.01318,27.15
$MAG,5605.284,-0.363,0.103,-0.867,26.1
$IMU,5605.285,-0.305,0.061,-0.183,0.01367,-0.02294,1.01513,27.15
$IMU,5605.287,-0.244,-0.122,-0.183,0.01562,-0.02148,1.01708,27.15
$IMU,5605.289,-0.366,0.061,-0.122,0.01171,-0.02636,1.01464,27.14
$IMU,5605.292,-0.305,0.061,-0.122,0.00976,-0.02392,1.01660,27.14
$MAG,5605.294,-0.375,0.111,-0.874,26.2
$IMU,5605.294,-0.305,0.122,-0.183,0.01025,-0.01855,1.01318,27.14
$IMU,5605.296,-0.244,0.061,-0.122,0.01416,-0.02490,1.01757,27.14
$IMU,5605.299,-0.183,-0.122,-0.183,0.01171,-0.02197,1.01416,27.14
$IMU,5605.301,-0.305,0.122,-0.122,0.01367,-0.02099,1.01464,27.14
$IMU,5605.303,-0.244,-0.061,-0.122,0.01318,-0.02392,1.01464,27.14
$MAG,5605.304,-0.376,0.106,-0.867,26.3
$IMU,5605.306,-0.244,0.061,-0.122,0.01318,-0.02246,1.01562,27.14
$IMU,5605.308,-0.244,-0.122,-0.061,0.01025,-0.02343,1.01513,27.17
$IMU,5605.310,-0.244,-0.122,-0.122,0.01269,-0.02148,1.01318,27.17
$IMU,5605.313,-0.244,0.122,-0.183,0.01269,-0.02343,1.01269,27.17
$MAG,5605.314,-0.367,0.112,-0.865,26.1
$IMU,5605.315,-0.244,-0.061,-0.183,0.01367,-0.01953,1.01367,27.17
$IMU,5605.317,-0.244,-0.183,-0.183,0.01171,-0.02050,1.01367,27.17
$IMU,5605.320,-0.183,0.000,-0.122,0.01464,-0.02246,1.01611,27.17
$IMU,5605.322,-0.244,0.000,-0.122,0.01123,-0.02001,1.01464,27.17
$MAG,5605.324,-0.370,0.111,-0.876,26.1
$IMU,5605.324,-0.244,-0.061,-0.183,0.01269,-0.02343,1.01464,27.17
$IMU,5605.327,-0.183,-0.061,-0.061,0.01367,-0.02441,1.01611,27.17
$IMU,5605.329,-0.244,0.000,-0.183,0.01318,-0.02343,1.01123,27.17
$IMU,5605.332,-0.244,-0.061,-0.183,0.01269,-0.02490,1.01416,27.17
$IMU,5605.334,-0.244,0.061,-0.061,0.01220,-0.02197,1.01464,27.17
$MAG,5605.335,-0.376,0.112,-0.865,26.1
$IMU,5605.336,-0.305,0.000,-0.183,0.00976,-0.02441,1.01464,27.17
$IMU,5605.339,-0.305,0.061,-0.122,0.01318,-0.02587,1.01269,27.17
$IMU,5605.341,-0.244,0.000,-0.122,0.01416,-0.02294,1.01367,27.17
$IMU,5605.343,-0.244,-0.061,-0.183,0.01318,-0.02685,1.01611,27.17
$MAG,5605.345,-0.378,0.103,-0.864,26.2
$IMU,5605.346,-0.305,0.061,-0.183,0.01220,-0.02441,1.01562,27.15
$IMU,5605.348,-0.305,0.183,-0.122,0.01269,-0.02197,1.01464,27.15
$IMU,5605.350,-0.244,-0.061,-0.061,0.01513,-0.02343,1.01367,27.15
$IMU,5605.353,-0.122,-0.122,-0.122,0.01171,-0.02343,1.01123,27.15
$MAG,5605.355,-0.372,0.108,-0.873,26.2
$IMU,5605.355,-0.183,-0.061,-0.183,0.01171,-0.02343,1.01220,27.15
$IMU,5605.357,-0.244,0.000,-0.183,0.01416,-0.02246,1.01318,27.15
$IMU,5605.360,-0.244,0.000,-0.183,0.01318,-0.02343,1.01611,27.15
$IMU,5605.362,-0.183,0.000,-0.122,0.01318,-0.02636,1.01416,27.15
$IMU,5605.364,-0.183,0.000,-0.183,0.01171,-0.02343,1.01464,27.18
$MAG,5605.365,-0.364,0.106,-0.873,26.1
$IMU,5605.367,-0.122,-0.183,-0.122,0.01074,-0.02099,1.01367,27.18
$IMU,5605.369,-0.244,-0.122,-0.122,0.00781,-0.02343,1.01660,27.18
$IMU,5605.371,-0.244,0.000,-0.122,0.00927,-0.02294,1.01611,27.18
$IMU,5605.374,-0.305,-0.061,-0.183,0.01171,-0.02294,1.01611,27.18
$MAG,5605.375,-0.369,0.109,-0.867,26.3
$IMU,5605.376,-0.305,0.061,-0.183,0.01269,-0.02148,1.01611,27.18
$IMU,5605.378,-0.305,0.061,-0.061,0.01464,-0.02490,1.01318,27.18
$IMU,5605.381,-0.366,0.000,-0.183,0.01269,-0.02148,1.01464,27.18
$BARO,5605.383,86800.52,27.35
$IMU,5605.383,-0.366,0.061,-0.244,0.01220,-0.01855,1.01123,27.16
$MAG,5605.385,-0.369,0.115,-0.874,26.2
$IMU,5605.385,-0.305,0.183,-0.122,0.01708,-0.01953,1.01464,27.16
$IMU,5605.388,-0.305,0.183,-0.122,0.01757,-0.02294,1.01269,27.16
$IMU,5605.390,-0.244,0.061,-0.183,0.01171,-0.02099,1.01806,27.16
$IMU,5605.393,-0.305,0.122,-0.183,0.01171,-0.02392,1.01611,27.16
$MAG,5605.395,-0.379,0.106,-0.867,26.2
$IMU,5605.395,-0.244,-0.122,-0.183,0.01269,-0.02392,1.01660,27.16
$IMU,5605.397,-0.183,-0.061,-0.244,0.01464,-0.02197,1.01318,27.16
$IMU,5605.400,-0.244,0.000,-0.183,0.01464,-0.02197,1.01269,27.16
$IMU,5605.402,-0.305,0.000,-0.183,0.01513,-0.02490,1.01708,27.16
$IMU,5605.404,-0.305,0.000,-0.122,0.01220,-0.02294,1.01562,27.16
$MAG,5605.405,-0.372,0.105,-0.859,26.2
$IMU,5605.407,-0.244,-0.122,-0.122,0.01269,-0.02441,1.01660,27.16
$IMU,5605.409,-0.244,-0.122,-0.183,0.01611,-0.02343,1.01416,27.16
$IMU,5605.411,-0.244,-0.122,-0.061,0.01171,-0.02392,1.01171,27.16
$IMU,5605.414,-0.305,0.000,-0.183,0.01318,-0.02685,1.01416,27.16
$MAG,5605.415,-0.376,0.106,-0.870,26.1
$IMU,5605.416,-0.305,0.061,-0.122,0.01367,-0.02392,1.01220,27.16
$IMU,5605.418,-0.244,-0.061,-0.122,0.01171,-0.01806,1.01562,27.16
$IMU,5605.421,-0.244,-0.122,-0.122,0.01269,-0.02099,1.01318,27.16
$IMU,5605.423,-0.244,-0.061,-0.122,0.01171,-0.02099,1.01611,27.16
$IMU,5605.425,-0.305,0.000,-0.183,0.01318,-0.01855,1.01416,27.16
$MAG,5605.425,-0.373,0.109,-0.870,26.2
$IMU,5605.428,-0.305,0.183,-0.183,0.01513,-0.01953,1.01171,27.16
$HUM,5605.429,38.4,27.8
$IMU,5605.430,-0.305,0.122,-0.183,0.01367,-0.02392,1.01171,27.16
$IMU,5605.432,-0.244,-0.061,-0.183,0.01171,-0.02099,1.01269,27.16
$MAG,5605.435,-0.372,0.102,-0.865,26.2
$IMU,5605.435,-0.244,0.000,-0.183,0.01269,-0.02539,1.01513,27.16
$IMU,5605.437,-0.244,-0.183,-0.122,0.01318,-0.02490,1.01513,27.16
$IMU,5605.439,-0.305,-0.122,-0.183,0.01562,-0.02392,1.01513,27.16
$IMU,5605.442,-0.305,0.061,-0.183,0.01611,-0.02294,1.01855,27.16
$IMU,5605.444,-0.244,-0.061,-0.122,0.01171,-0.02148,1.01806,27.16
$MAG,5605.445,-0.372,0.108,-0.870,26.1
$IMU,5605.446,-0.244,-0.122,-0.122,0.01220,-0.02343,1.01464,27.16
$IMU,5605.449,-0.183,0.000,-0.122,0.01318,-0.02294,1.01416,27.16
$IMU,5605.451,-0.305,0.000,-0.061,0.01269,-0.01904,1.01416,27.16
$IMU,5605.453,-0.244,0.000,-0.122,0.01367,-0.01904,1.01513,27.16
$MAG,5605.456,-0.370,0.106,-0.871,26.1
$IMU,5605.456,-0.305,0.000,-0.183,0.01171,-0.02246,1.01562,27.16
$IMU,5605.458,-0.305,0.000,-0.061,0.01513,-0.02441,1.01416,27.14
$IMU,5605.461,-0.244,-0.061,-0.061,0.01171,-0.02148,1.01416,27.14
$IMU,5605.463,-0.244,-0.061,-0.122,0.01074,-0.02343,1.01367,27.14
$IMU,5605.465,-0.305,0.122,-0.061,0.01269,-0.02490,1.01367,27.14
$MAG,5605.466,-0.375,0.105,-0.859,26.1
$IMU,5605.468,-0.305,0.122,-0.183,0.01318,-0.02392,1.01464,27.14
$IMU,5605.470,-0.305,0.000,-0.061,0.01660,-0.02050,1.01367,27.14
$IMU,5605.472,-0.183,-0.122,-0.061,0.01318,-0.02294,1.01513,27.14
$IMU,5605.475,-0.244,0.000,-0.122,0.01464,-0.02246,1.01611,27.14
$MAG,5605.476,-0.373,0.108,-0.867,26.2
$IMU,5605.477,-0.244,-0.061,-0.183,0.01318,-0.02294,1.01220,27.16
$IMU,5605.479,-0.244,-0.122,-0.183,0.01269,-0.02148,1.01513,27.16
$IMU,5605.482,-0.305,0.000,-0.122,0.01074,-0.02294,1.01171,27.16
$BARO,5605.484,86794.08,27.35
$IMU,5605.484,-0.305,-0.061,-0.122,0.01269,-0.02148,1.01367,27.16
$MAG,5605.486,-0.364,0.105,-0.868,26.2
$IMU,5605.486,-0.244,-0.061,-0.122,0.01416,-0.02294,1.01513,27.16
$IMU,5605.489,-0.366,0.122,-0.122,0.01269,-0.02343,1.01513,27.16
$IMU,5605.491,-0.366,0.122,-0.122,0.01123,-0.02294,1.01416,27.16
$IMU,5605.493,-0.244,-0.122,-0.122,0.01269,-0.02099,1.01367,27.16
$MAG,5605.496,-0.376,0.112,-0.870,26.1
$IMU,5605.496,-0.366,0.061,-0.122,0.01269,-0.02148,1.01513,27.11
$IMU,5605.498,-0.305,0.122,-0.183,0.01025,-0.02197,1.01708,27.11
$IMU,5605.500,-0.305,-0.061,-0.122,0.00976,-0.02539,1.01562,27.11
$IMU,5605.503,-0.305,-0.061,-0.183,0.01220,-0.02539,1.01416,27.11
$IMU,5605.505,-0.366,0.061,-0.122,0.01318,-0.02490,1.01367,27.11
$MAG,5605.506,-0.382,0.112,-0.873,26.1
$IMU,5605.507,-0.244,-0.122,-0.122,0.01318,-0.01855,1.01367,27.11
$IMU,5605.510,-0.305,-0.061,-0.122,0.01562,-0.01953,1.01318,27.11
$IMU,5605.512,-0.244,0.000,-0.122,0.01416,-0.02343,1.01269,27.11
$IMU,5605.514,-0.305,0.061,-0.183,0.01220,-0.02197,1.01318,27.18
$MAG,5605.516,-0.375,0.106,-0.865,26.1
$IMU,5605.517,-0.244,-0.122,-0.183,0.01123,-0.02148,1.01416,27.18
$IMU,5605.519,-0.305,0.000,-0.122,0.01367,-0.02148,1.01611,27.18
$IMU,5605.522,-0.244,0.061,-0.183,0.01367,-0.02343,1.01708,27.18
$IMU,5605.524,-0.183,-0.061,-0.061,0.01171,-0.02197,1.01660,27.18
$MAG,5605.526,-0.369,0.108,-0.871,26.1
$IMU,5605.526,-0.305,-0.061,-0.122,0.01171,-0.02148,1.01611,27.18
$IMU,5605.529,-0.244,0.000,-0.183,0.01269,-0.02392,1.01708,27.18
$IMU,5605.531,-0.244,-0.122,-0.183,0.01269,-0.02539,1.01269,27.18
$IMU,5605.533,-0.244,0.061,-0.122,0.01171,-0.02539,1.01367,27.18
$MAG,5605.536,-0.369,0.106,-0.870,26.2
$IMU,5605.536,-0.244,0.061,-0.122,0.01123,-0.02441,1.01318,27.18
$IMU,5605.538,-0.183,-0.061,-0.122,0.00976,-0.02148,1.01171,27.18
$IMU,5605.540,-0.244,-0.061,-0.244,0.01416,-0.02392,1.01562,27.18
$IMU,5605.543,-0.305,-0.061,-0.183,0.01269,-0.02099,1.01416,27.18
$IMU,5605.545,-0.305,0.061,-0.122,0.01269,-0.02392,1.01367,27.18
$MAG,5605.546,-0.370,0.106,-0.865,26.2
$IMU,5605.547,-0.183,-0.183,-0.122,0.01220,-0.02343,1.01562,27.18
$IMU,5605.550,-0.244,-0.061,-0.122,0.01464,-0.01953,1.01269,27.18
$IMU,5605.552,-0.244,-0.122,-0.122,0.01269,-0.02441,1.01660,27.12
$IMU,5605.554,-0.244,-0.061,-0.122,0.01025,-0.02343,1.01513,27.12
$MAG,5605.556,-0.372,0.099,-0.864,26.1
$IMU,5605.557,-0.305,-0.061,-0.061,0.01220,-0.02490,1.01464,27.12
$IMU,5605.559,-0.244,0.000,-0.183,0.01074,-0.02490,1.01513,27.12
$IMU,5605.561,-0.305,0.061,-0.122,0.01367,-0.02099,1.01660,27.12
$IMU,5605.564,-0.305,-0.061,-0.183,0.01025,-0.02294,1.01464,27.12
$MAG,5605.566,-0.381,0.105,-0.873,26.1
$IMU,5605.566,-0.305,0.061,-0.183,0.01220,-0.02343,1.01367,27.12
$IMU,5605.568,-0.305,0.122,-0.183,0.01123,-0.02148,1.01562,27.12
$IMU,5605.571,-0.305,0.000,-0.183,0.01269,-0.02197,1.01611,27.14
$IMU,5605.573,-0.305,0.000,-0.122,0.01123,-0.02197,1.01513,27.14
$IMU,5605.575,-0.244,-0.061,-0.122,0.01220,-0.02197,1.01513,27.14
$MAG,5605.577,-0.370,0.108,-0.876,26.2
$IMU,5605.578,-0.244,-0.061,-0.122,0.01464,-0.02246,1.01757,27.14
$IMU,5605.580,-0.183,-0.122,-0.122,0.01513,-0.02441,1.01513,27.14
$IMU,5605.583,-0.183,-0.061,-0.122,0.01318,-0.02294,1.01513,27.14
$IMU,5605.585,-0.305,0.000,-0.122,0.01318,-0.02197,1.01220,27.14
$BARO,5605.586,86790.40,27.36
$MAG,5605.587,-0.372,0.109,-0.864,26.2
$IMU,5605.587,-0.183,-0.183,-0.061,0.01318,-0.02343,1.01464,27.14
$IMU,5605.590,-0.244,-0.061,-0.122,0.01367,-0.02099,1.01416,27.18
$IMU,5605.592,-0.244,-0.061,-0.122,0.01318,-0.02392,1.01416,27.18
$IMU,5605.594,-0.183,-0.061,-0.122,0.01513,-0.02099,1.01708,27.18
$MAG,5605.597,-0.370,0.109,-0.874,26.2
$IMU,5605.597,-0.244,-0.061,-0.061,0.01513,-0.02246,1.01708,27.18
$IMU,5605.599,-0.366,0.061,-0.183,0.01562,-0.02294,1.01611,27.18
$IMU,5605.601,-0.305,0.061,-0.122,0.01416,-0.02246,1.01660,27.18
$IMU,5605.604,-0.183,-0.122,-0.122,0.01269,-0.02539,1.01318,27.18
$IMU,5605.606,-0.183,-0.061,-0.122,0.01367,-0.02441,1.01123,27.18
$MAG,5605.607,-0.369,0.108,-0.865,26.2
$IMU,5605.608,-0.244,0.000,-0.183,0.01416,-0.02197,1.01464,27.18
$IMU,5605.611,-0.244,0.000,-0.122,0.01513,-0.02343,1.01464,27.18
$IMU,5605.613,-0.183,-0.061,-0.122,0.01416,-0.02197,1.01660,27.18
$IMU,5605.615,-0.244,0.061,-0.122,0.01611,-0.02197,1.01562,27.18
$MAG,5605.617,-0.378,0.108,-0.871,26.1
$IMU,5605.618,-0.244,-0.061,-0.183,0.01269,-0.02294,1.01318,27.18
$IMU,5605.620,-0.244,-0.061,-0.122,0.01269,-0.02099,1.01464,27.18
$IMU,5605.622,-0.305,0.061,-0.183,0.01416,-0.02246,1.01562,27.18
$IMU,5605.625,-0.305,0.061,-0.122,0.01367,-0.02392,1.01367,27.18
$MAG,5605.627,-0.375,0.103,-0.865,26.2
$IMU,5605.627,-0.122,-0.183,-0.122,0.01269,-0.02343,1.01660,27.16
$IMU,5605.629,-0.244,0.000,-0.061,0.00976,-0.02246,1.01660,27.16
$IMU,5605.632,-0.244,-0.122,-0.244,0.01074,-0.02539,1.01513,27.16
$IMU,5605.634,-0.244,-0.061,-0.122,0.01220,-0.02392,1.01757,27.16
$IMU,5605.636,-0.305,0.061,-0.122,0.01269,-0.02441,1.01757,27.16
$MAG,5605.637,-0.369,0.100,-0.870,26.1
$IMU,5605.639,-0.366,0.061,-0.122,0.01513,-0.02148,1.01513,27.16
$IMU,5605.641,-0.305,0.061,-0.183,0.01562,-0.01953,1.01660,27.16
$IMU,5605.644,-0.244,0.000,-0.122,0.01367,-0.02197,1.01464,27.16
$IMU,5605.646,-0.244,0.000,-0.183,0.01171,-0.02685,1.01464,27.14
$MAG,5605.647,-0.381,0.115,-0.865,26.1
$IMU,5605.648,-0.244,0.000,-0.122,0.01318,-0.02343,1.01513,27.14
$IMU,5605.651,-0.244,0.061,-0.122,0.01464,-0.02441,1.01318,27.14
$IMU,5605.653,-0.305,0.061,-0.122,0.01220,-0.02343,1.01562,27.14
$IMU,5605.655,-0.366,0.000,-0.122,0.01367,-0.02343,1.01611,27.14
$MAG,5605.657,-0.376,0.111,-0.873,26.1
$IMU,5605.658,-0.244,-0.061,-0.183,0.01123,-0.02148,1.01416,27.14
$IMU,5605.660,-0.244,-0.122,-0.122,0.01269,-0.02490,1.01660,27.14
$IMU,5605.662,-0.305,-0.061,-0.122,0.01464,-0.02734,1.01269,27.14
$IMU,5605.665,-0.305,0.061,-0.122,0.01220,-0.02392,1.01318,27.17
$MAG,5605.667,-0.373,0.108,-0.871,26.3
$IMU,5605.667,-0.305,0.061,-0.122,0.01660,-0.02392,1.01074,27.17
$IMU,5605.669,-0.183,-0.122,-0.183,0.01123,-0.02294,1.01269,27.17
$IMU,5605.672,-0.305,0.000,-0.183,0.01416,-0.01806,1.01464,27.17
$IMU,5605.674,-0.244,-0.061,-0.061,0.01171,-0.02197,1.01562,27.17
$IMU,5605.676,-0.244,0.000,-0.122,0.01220,-0.01953,1.01269,27.17
$MAG,5605.677,-0.375,0.105,-0.871,26.2
$IMU,5605.679,-0.244,0.000,-0.183,0.01367,-0.01953,1.01220,27.17
$IMU,5605.681,-0.244,0.000,-0.122,0.01416,-0.02294,1.01367,27.17
$IMU,5605.683,-0.305,-0.061,-0.122,0.01123,-0.02197,1.01269,27.17
$IMU,5605.686,-0.366,0.000,-0.183,0.01171,-0.02148,1.01367,27.17
$BARO,5605.687,86799.25,27.36
$MAG,5605.687,-0.378,0.111,-0.870,26.2
$IMU,5605.688,-0.244,-0.122,-0.183,0.01123,-0.02392,1.01367,27.17
$IMU,5605.690,-0.366,0.244,-0.122,0.01220,-0.02636,1.01220,27.17
$IMU,5605.693,-0.244,0.000,-0.122,0.01367,-0.02294,1.01513,27.17
$IMU,5605.695,-0.244,-0.061,-0.122,0.01367,-0.02197,1.01416,27.17
$IMU,5605.697,-0.122,-0.122,-0.122,0.01269,-0.02246,1.01416,27.17
$MAG,5605.698,-0.370,0.102,-0.873,26.1
$IMU,5605.700,-0.183,-0.122,-0.122,0.00927,-0.02246,1.01660,27.17
$IMU,5605.702,-0.244,-0.122,-0.122,0.01171,-0.02392,1.01367,27.20
$IMU,5605.705,-0.305,-0.061,-0.122,0.01318,-0.02148,1.01416,27.20
$IMU,5605.707,-0.366,0.000,-0.183,0.00878,-0.02294,1.01123,27.20
$MAG,5605.708,-0.375,0.106,-0.870,26.1
$IMU,5605.709,-0.244,0.000,-0.122,0.01367,-0.02490,1.01464,27.20
$IMU,5605.712,-0.244,-0.183,-0.122,0.01513,-0.02343,1.01074,27.20
$IMU,5605.714,-0.244,-0.061,-0.183,0.01513,-0.02246,1.01464,27.20
$IMU,5605.716,-0.244,0.000,-0.122,0.01123,-0.02197,1.01513,27.20
$MAG,5605.718,-0.373,0.103,-0.871,26.2
$IMU,5605.719,-0.305,0.061,-0.183,0.01171,-0.02294,1.01611,27.20
$IMU,5605.721,-0.305,0.000,-0.122,0.01074,-0.02343,1.01464,27.17
$IMU,5605.723,-0.244,-0.061,-0.122,0.01171,-0.02294,1.01464,27.17
$IMU,5605.726,-0.244,0.000,-0.183,0.01269,-0.02343,1.01660,27.17
$IMU,5605.728,-0.244,0.000,-0.183,0.00976,-0.02246,1.01416,27.17
$MAG,5605.728,-0.375,0.105,-0.862,26.2
$IMU,5605.730,-0.183,0.000,-0.183,0.01025,-0.01953,1.01269,27.17
$IMU,5605.733,-0.244,-0.061,-0.122,0.00976,-0.02246,1.01367,27.17
$IMU,5605.735,-0.244,-0.122,-0.122,0.01220,-0.02294,1.01464,27.17
$IMU,5605.737,-0.244,-0.061,-0.122,0.01269,-0.02343,1.01464,27.17
$MAG,5605.738,-0.372,0.108,-0.876,26.2
$IMU,5605.740,-0.244,-0.061,-0.183,0.01660,-0.02343,1.01562,27.16
$IMU,5605.742,-0.305,0.122,-0.061,0.01269,-0.02294,1.01269,27.16
$IMU,5605.744,-0.244,0.061,-0.122,0.01464,-0.02197,1.01318,27.16
$IMU,5605.747,-0.244,0.000,-0.122,0.01123,-0.02343,1.01806,27.16
$MAG,5605.748,-0.379,0.112,-0.867,26.2
$IMU,5605.749,-0.183,-0.061,-0.122,0.01220,-0.02343,1.01611,27.16
$IMU,5605.751,-0.244,0.000,-0.122,0.01416,-0.02539,1.01562,27.16
$IMU,5605.754,-0.244,-0.061,-0.183,0.01416,-0.02148,1.01416,27.16
$IMU,5605.756,-0.305,0.061,-0.183,0.01318,-0.02343,1.01318,27.16
$MAG,5605.758,-0.364,0.109,-0.871,26.2
$IMU,5605.758,-0.305,0.000,-0.183,0.01367,-0.02099,1.01416,27.16
$IMU,5605.761,-0.183,-0.061,-0.122,0.01123,-0.02099,1.01562,27.16
$IMU,5605.763,-0.183,-0.122,-0.061,0.01660,-0.02050,1.01464,27.16
$IMU,5605.765,-0.122,-0.061,-0.122,0.01269,-0.02197,1.01416,27.16
$MAG,5605.768,-0.373,0.106,-0.873,26.1
$IMU,5605.768,-0.183,0.000,-0.122,0.01562,-0.02294,1.01367,27.16
$IMU,5605.770,-0.244,-0.061,-0.122,0.01562,-0.02490,1.01513,27.16
$IMU,5605.773,-0.305,0.061,-0.183,0.01562,-0.02490,1.01416,27.16
$IMU,5605.775,-0.183,-0.061,-0.122,0.01416,-0.02392,1.01220,27.16
$IMU,5605.777,-0.183,-0.122,-0.122,0.01171,-0.02246,1.01806,27.18
$MAG,5605.778,-0.369,0.109,-0.871,26.2
$IMU,5605.780,-0.305,0.000,-0.183,0.01464,-0.02490,1.01464,27.18
$IMU,5605.782,-0.244,-0.061,-0.122,0.01367,-0.02050,1.01513,27.18
$IMU,5605.784,-0.244,0.000,-0.122,0.01416,-0.02294,1.01513,27.18
$IMU,5605.787,-0.244,0.000,-0.183,0.01318,-0.02197,1.01562,27.18
$MAG,5605.788,-0.376,0.111,-0.870,26.2
$BARO,5605.789,86799.10,27.35
$IMU,5605.789,-0.305,0.000,-0.183,0.01220,-0.02099,1.01611,27.18
$IMU,5605.791,-0.244,0.000,-0.122,0.01318,-0.02441,1.01513,27.18
$IMU,5605.794,-0.244,-0.061,-0.183,0.01367,-0.02246,1.01464,27.18
$IMU,5605.796,-0.305,0.000,-0.183,0.01318,-0.02246,1.01269,27.18
$MAG,5605.798,-0.372,0.117,-0.871,26.2
$IMU,5605.798,-0.244,0.000,-0.183,0.01074,-0.02050,1.01367,27.18
$IMU,5605.801,-0.244,-0.122,-0.122,0.01171,-0.02343,1.01464,27.18
$IMU,5605.803,-0.244,-0.061,-0.183,0.01318,-0.02441,1.01318,27.18
$IMU,5605.805,-0.305,0.000,-0.122,0.01367,-0.02294,1.01220,27.18
$MAG,5605.808,-0.381,0.102,-0.868,26.1
$IMU,5605.808,-0.305,0.000,-0.122,0.01464,-0.02441,1.01416,27.18
$IMU,5605.810,-0.244,0.061,-0.183,0.01171,-0.02294,1.01464,27.18
$IMU,5605.812,-0.305,0.000,-0.183,0.01171,-0.02392,1.01708,27.18
$IMU,5605.815,-0.305,-0.061,-0.183,0.00927,-0.02246,1.01660,27.18
$IMU,5605.817,-0.244,-0.061,-0.122,0.01269,-0.02392,1.01562,27.18
$MAG,5605.818,-0.367,0.114,-0.876,26.1
$IMU,5605.819,-0.244,0.000,-0.122,0.01220,-0.02490,1.01611,27.18
$IMU,5605.822,-0.244,-0.061,-0.061,0.01464,-0.02392,1.01708,27.18
$IMU,5605.824,-0.244,-0.061,-0.183,0.01464,-0.02197,1.01464,27.18
$IMU,5605.826,-0.244,-0.061,-0.183,0.01123,-0.02392,1.01318,27.18
$IMU,5605.829,-0.183,-0.122,-0.183,0.01074,-0.02246,1.01513,27.18
$MAG,5605.829,-0.370,0.111,-0.868,26.2
$IMU,5605.831,-0.305,0.000,-0.122,0.01513,-0.02197,1.01513,27.18
$IMU,5605.834,-0.305,0.000,-0.183,0.01464,-0.02099,1.01757,27.15
$IMU,5605.836,-0.305,0.000,-0.183,0.01464,-0.02197,1.01318,27.15
$IMU,5605.838,-0.305,0.000,-0.122,0.01416,-0.02246,1.01513,27.15
$MAG,5605.839,-0.370,0.106,-0.873,26.2
$IMU,5605.841,-0.305,-0.061,-0.122,0.01464,-0.02490,1.01416,27.15
$IMU,5605.843,-0.244,-0.061,-0.183,0.01562,-0.02539,1.01611,27.15
$IMU,5605.845,-0.366,0.122,-0.183,0.01220,-0.02392,1.01611,27.15
$IMU,5605.848,-0.366,0.122,-0.183,0.01171,-0.02148,1.01708,27.15
$MAG,5605.849,-0.364,0.100,-0.864,26.3
$IMU,5605.850,-0.305,0.000,-0.122,0.01318,-0.02392,1.01708,27.15
$IMU,5605.852,-0.305,-0.061,-0.183,0.01171,-0.02343,1.01562,27.12
$IMU,5605.855,-0.305,0.000,-0.122,0.01367,-0.02441,1.01416,27.12
$IMU,5605.857,-0.244,-0.183,-0.183,0.01318,-0.02050,1.01562,27.12
$MAG,5605.859,-0.372,0.106,-0.861,26.2
$IMU,5605.859,-0.305,0.000,-0.122,0.01269,-0.02587,1.01855,27.12
$IMU,5605.862,-0.305,0.061,-0.122,0.01025,-0.02441,1.01269,27.12
$IMU,5605.864,-0.305,0.000,-0.122,0.01171,-0.02343,1.01562,27.12
$IMU,5605.866,-0.244,-0.183,-0.122,0.01367,-0.02343,1.01562,27.12
$MAG,5605.869,-0.376,0.112,-0.865,26.2
$IMU,5605.869,-0.183,-0.122,-0.122,0.01220,-0.02246,1.01416,27.12
$IMU,5605.871,-0.244,0.000,-0.061,0.01464,-0.02294,1.01513,27.16
$IMU,5605.873,-0.305,0.000,-0.183,0.01367,-0.02001,1.01464,27.16
$IMU,5605.876,-0.305,0.000,-0.183,0.01318,-0.02099,1.01318,27.16
$IMU,5605.878,-0.305,-0.061,-0.183,0.01318,-0.02148,1.01464,27.16
$MAG,5605.879,-0.369,0.118,-0.873,26.2
$IMU,5605.880,-0.305,0.000,-0.122,0.01611,-0.02490,1.01416,27.16
$IMU,5605.883,-0.244,0.061,-0.122,0.01464,-0.02294,1.01660,27.16
$IMU,5605.885,-0.305,0.000,-0.183,0.01416,-0.02148,1.01855,27.16
$IMU,5605.887,-0.183,-0.122,-0.122,0.01367,-0.02343,1.01367,27.16
$MAG,5605.889,-0.373,0.108,-0.879,26.2
$BARO,5605.890,86793.84,27.36
$IMU,5605.890,-0.305,0.061,-0.122,0.01269,-0.02246,1.01074,27.21
$IMU,5605.892,-0.122,-0.244,-0.122,0.01171,-0.01953,1.01123,27.21
$IMU,5605.895,-0.183,0.000,-0.122,0.01123,-0.02246,1.01123,27.21
$IMU,5605.897,-0.244,0.000,-0.061,0.01025,-0.02197,1.01220,27.21
$MAG,5605.899,-0.372,0.111,-0.868,26.2
$IMU,5605.899,-0.305,-0.061,-0.183,0.01318,-0.02050,1.01513,27.21
$IMU,5605.902,-0.366,0.122,-0.122,0.01171,-0.01904,1.01611,27.21
$IMU,5605.904,-0.305,0.061,-0.122,0.01123,-0.02343,1.01757,27.21
$IMU,5605.906,-0.305,-0.061,-0.122,0.01269,-0.02441,1.01464,27.21
$MAG,5605.909,-0.379,0.105,-0.870,26.2
$IMU,5605.909,-0.305,0.000,-0.122,0.01171,-0.01855,1.01367,27.19
$IMU,5605.911,-0.366,0.183,-0.183,0.01367,-0.02294,1.01660,27.19
$IMU,5605.913,-0.305,-0.061,-0.183,0.01318,-0.02148,1.01611,27.19
$IMU,5605.916,-0.305,0.061,-0.122,0.01367,-0.02441,1.01757,27.19
$IMU,5605.918,-0.244,-0.122,-0.122,0.01220,-0.02685,1.01660,27.19
$MAG,5605.919,-0.363,0.109,-0.871,26.1
$IMU,5605.920,-0.244,-0.122,-0.183,0.01318,-0.02539,1.01416,27.19
$IMU,5605.923,-0.305,0.061,-0.122,0.01318,-0.02099,1.01660,27.19
$IMU,5605.925,-0.244,-0.061,-0.122,0.00976,-0.02294,1.01464,27.19
$IMU,5605.927,-0.305,0.061,-0.122,0.01171,-0.02001,1.01464,27.17
$MAG,5605.929,-0.376,0.111,-0.867,26.2
$IMU,5605.930,-0.183,0.000,-0.183,0.01269,-0.02294,1.01464,27.17
$IMU,5605.932,-0.183,-0.183,-0.122,0.01220,-0.02294,1.01562,27.17
$IMU,5605.934,-0.244,-0.061,-0.183,0.01416,-0.02392,1.01513,27.17
$IMU,5605.937,-0.305,0.061,-0.183,0.01220,-0.02197,1.01318,27.17
$MAG,5605.939,-0.372,0.109,-0.865,26.2
$IMU,5605.939,-0.305,0.000,-0.122,0.01513,-0.02441,1.01562,27.17
$IMU,5605.941,-0.305,0.000,-0.183,0.01025,-0.02148,1.01269,27.17
$IMU,5605.944,-0.244,-0.061,-0.183,0.01513,-0.02294,1.01464,27.17
$IMU,5605.946,-0.305,-0.061,-0.183,0.01220,-0.02246,1.01367,27.20
$IMU,5605.948,-0.305,0.000,-0.122,0.01269,-0.02343,1.01513,27.20
$MAG,5605.950,-0.369,0.115,-0.876,26.2
$IMU,5605.951,-0.244,0.061,-0.183,0.01123,-0.02294,1.01464,27.20
$IMU,5605.953,-0.244,-0.061,-0.122,0.01074,-0.02197,1.01464,27.20
$IMU,5605.956,-0.183,-0.183,-0.183,0.01269,-0.02636,1.01367,27.20
$IMU,5605.958,-0.244,-0.122,-0.183,0.01318,-0.02246,1.01367,27.20
$MAG,5605.960,-0.376,0.109,-0.868,26.1
$IMU,5605.960,-0.305,0.000,-0.122,0.01367,-0.02490,1.01464,27.20
$IMU,5605.963,-0.305,0.000,-0.122,0.01416,-0.02441,1.01269,27.20
$IMU,5605.965,-0.366,0.061,-0.122,0.01367,-0.02636,1.01318,27.15
$IMU,5605.967,-0.244,-0.061,-0.122,0.01220,-0.02294,1.01220,27.15
$MAG,5605.970,-0.370,0.105,-0.873,26.1
$IMU,5605.970,-0.305,0.000,-0.122,0.01123,-0.02343,1.01416,27.15
$IMU,5605.972,-0.244,0.000,-0.122,0.01269,-0.02539,1.01562,27.15
$IMU,5605.974,-0.244,0.061,-0.061,0.01269,-0.02343,1.01416,27.15
$IMU,5605.977,-0.305,0.122,-0.122,0.01220,-0.02490,1.01660,27.15
$IMU,5605.979,-0.244,-0.061,-0.122,0.01220,-0.02343,1.01611,27.15
$MAG,5605.980,-0.376,0.106,-0.867,26.1
$IMU,5605.981,-0.183,-0.061,-0.183,0.01074,-0.02246,1.01220,27.15
$IMU,5605.984,-0.244,-0.061,-0.122,0.00976,-0.01953,1.01513,27.18
$IMU,5605.986,-0.183,-0.061,-0.183,0.01464,-0.01904,1.01708,27.18
$IMU,5605.988,-0.366,0.000,-0.122,0.01367,-0.02343,1.01513,27.18
$MAG,5605.990,-0.379,0.109,-0.867,26.2
$IMU,5605.991,-0.183,-0.061,-0.122,0.01318,-0.02197,1.01464,27.18
$BARO,5605.992,86796.30,27.35
$IMU,5605.993,-0.244,0.061,-0.122,0.01220,-0.02294,1.01367,27.18
$IMU,5605.995,-0.183,-0.061,-0.122,0.01318,-0.01904,1.01318,27.18
$IMU,5605.998,-0.183,-0.122,-0.183,0.01367,-0.02294,1.01074,27.18
$MAG,5606.000,-0.376,0.108,-0.861,26.2
$IMU,5606.000,-0.305,0.000,-0.122,0.01171,-0.02148,1.01171,27.18
$IMU,5606.002,-0.305,0.061,-0.122,0.01318,-0.02197,1.01123,27.21
$IMU,5606.005,-0.183,-0.061,-0.122,0.01171,-0.02294,1.01269,27.21
$IMU,5606.007,-0.183,-0.061,-0.183,0.01220,-0.02441,1.01074,27.21
$IMU,5606.009,-0.183,-0.061,-0.183,0.01464,-0.02050,1.01611,27.21
$MAG,5606.010,-0.363,0.112,-0.870,26.2
$IMU,5606.012,-0.305,0.000,-0.122,0.01367,-0.02294,1.01269,27.21
$IMU,5606.014,-0.305,0.000,-0.122,0.01074,-0.02099,1.01611,27.21
$IMU,5606.017,-0.305,0.000,-0.122,0.01074,-0.01855,1.01367,27.21
$IMU,5606.019,-0.366,0.122,-0.122,0.01367,-0.02246,1.01367,27.21
$MAG,5606.020,-0.366,0.103,-0.871,26.1
$IMU,5606.021,-0.305,-0.122,-0.183,0.01464,-0.01806,1.01464,27.17
$IMU,5606.024,-0.305,-0.061,-0.122,0.01464,-0.01904,1.01074,27.17
$IMU,5606.026,-0.244,0.061,-0.183,0.01123,-0.02148,1.01464,27.17
$IMU,5606.028,-0.244,-0.061,-0.122,0.01123,-0.02246,1.01757,27.17
$MAG,5606.030,-0.370,0.108,-0.876,26.2
$IMU,5606.031,-0.305,0.000,-0.183,0.01513,-0.02392,1.01708,27.17
$IMU,5606.033,-0.305,-0.122,-0.183,0.01220,-0.02197,1.01513,27.17
$IMU,5606.035,-0.305,0.000,-0.183,0.01123,-0.02197,1.01806,27.17
$IMU,5606.038,-0.366,0.000,-0.122,0.01220,-0.02539,1.01367,27.17
$MAG,5606.040,-0.373,0.115,-0.871,26.2
$IMU,5606.040,-0.305,0.000,-0.122,0.01269,-0.02001,1.01611,27.19
$IMU,5606.042,-0.366,0.183,-0.122,0.01318,-0.02343,1.01416,27.19
$IMU,5606.045,-0.366,0.122,-0.122,0.01367,-0.02197,1.01611,27.19
$IMU,5606.047,-0.305,0.000,-0.122,0.01171,-0.02343,1.01464,27.19
$IMU,5606.049,-0.244,-0.061,-0.122,0.01220,-0.02246,1.01464,27.19
$MAG,5606.050,-0.367,0.111,-0.865,26.3
$IMU,5606.052,-0.244,0.000,-0.061,0.00878,-0.02148,1.01513,27.19
$IMU,5606.054,-0.305,0.061,-0.122,0.01123,-0.02343,1.01464,27.19
$IMU,5606.056,-0.305,0.122,-0.122,0.01416,-0.02343,1.01367,27.19
$IMU,5606.059,-0.183,-0.061,-0.183,0.01416,-0.01953,1.01269,27.15
$MAG,5606.060,-0.369,0.106,-0.876,26.2
$IMU,5606.061,-0.305,-0.122,-0.183,0.01025,-0.02294,1.01513,27.15
$IMU,5606.063,-0.244,0.000,-0.183,0.01171,-0.02294,1.01269,27.15
$IMU,5606.066,-0.244,0.000,-0.122,0.01171,-0.02246,1.01367,27.15
$IMU,5606.068,-0.244,0.000,-0.122,0.01220,-0.01953,1.01708,27.15
$MAG,5606.070,-0.369,0.118,-0.874,26.2
$IMU,5606.070,-0.305,0.061,-0.122,0.01269,-0.02294,1.01416,27.15
$IMU,5606.073,-0.183,-0.061,-0.122,0.01123,-0.02050,1.01611,27.15
$IMU,5606.075,-0.183,-0.122,-0.122,0.01367,-0.02148,1.01513,27.15
$IMU,5606.077,-0.183,-0.122,-0.122,0.01562,-0.02636,1.01220,27.20
$IMU,5606.080,-0.305,0.122,-0.183,0.01269,-0.02099,1.01123,27.20
$MAG,5606.081,-0.373,0.112,-0.874,26.2
$IMU,5606.082,-0.305,-0.061,-0.183,0.01074,-0.02490,1.01367,27.20
$IMU,5606.085,-0.244,0.122,-0.183,0.01318,-0.02246,1.01660,27.20
$IMU,5606.087,-0.244,0.000,-0.122,0.01269,-0.02392,1.01660,27.20
$IMU,5606.089,-0.244,0.061,-0.122,0.01318,-0.02392,1.01367,27.20
$MAG,5606.091,-0.375,0.108,-0.879,26.2
$IMU,5606.092,-0.305,0.061,-0.122,0.01318,-0.02539,1.01367,27.20
$BARO,5606.093,86793.69,27.35
$IMU,5606.094,-0.305,0.000,-0.183,0.01464,-0.02539,1.01416,27.20
$IMU,5606.096,-0.305,0.061,-0.183,0.01562,-0.02099,1.01367,27.19
$IMU,5606.099,-0.366,0.000,-0.122,0.01367,-0.02343,1.01464,27.19
$MAG,5606.101,-0.367,0.102,-0.877,26.2
$IMU,5606.101,-0.366,-0.061,-0.061,0.01318,-0.02294,1.01562,27.19
$IMU,5606.103,-0.244,-0.061,-0.183,0.01220,-0.02148,1.01220,27.19
$IMU,5606.106,-0.244,0.000,-0.183,0.01123,-0.01953,1.01562,27.19
$IMU,5606.108,-0.244,-0.061,-0.061,0.01171,-0.02343,1.01416,27.19
$IMU,5606.110,-0.305,0.000,-0.122,0.01171,-0.02441,1.01513,27.19
$MAG,5606.111,-0.363,0.109,-0.873,26.2
$IMU,5606.113,-0.244,-0.122,-0.183,0.01171,-0.02636,1.01464,27.19
$IMU,5606.115,-0.244,-0.061,-0.122,0.01269,-0.02490,1.01171,27.20
$IMU,5606.117,-0.305,0.000,-0.122,0.01416,-0.02343,1.01220,27.20
$IMU,5606.120,-0.305,0.000,-0.122,0.01513,-0.02343,1.01464,27.20
$MAG,5606.121,-0.379,0.108,-0.865,26.1
$IMU,5606.122,-0.244,-0.061,-0.183,0.00927,-0.02050,1.01611,27.20
$IMU,5606.124,-0.305,0.061,-0.183,0.01025,-0.02050,1.01367,27.20
$IMU,5606.127,-0.244,-0.061,-0.122,0.01513,-0.02148,1.01464,27.20
$IMU,5606.129,-0.305,-0.122,-0.122,0.01171,-0.02050,1.01318,27.20
$MAG,5606.131,-0.366,0.106,-0.865,26.2
$IMU,5606.131,-0.244,-0.122,-0.183,0.00878,-0.02099,1.01416,27.20
$IMU,5606.134,-0.244,0.061,-0.122,0.01171,-0.02050,1.01416,27.19
$IMU,5606.136,-0.305,0.000,-0.122,0.01367,-0.01904,1.01806,27.19
$IMU,5606.138,-0.305,0.000,-0.122,0.01220,-0.02246,1.01513,27.19
$MAG,5606.141,-0.378,0.103,-0.865,26.2
$IMU,5606.141,-0.244,-0.061,-0.183,0.01269,-0.02197,1.01660,27.19
$IMU,5606.143,-0.244,-0.061,-0.244,0.01123,-0.02539,1.01269,27.19
$VBAT,5606.143,4.137
$IMU,5606.146,-0.305,0.000,-0.183,0.01025,-0.01806,1.01367,27.19
$IMU,5606.148,-0.244,0.000,-0.122,0.01367,-0.02636,1.01562,27.19
$IMU,5606.150,-0.305,0.000,-0.122,0.01464,-0.02392,1.01806,27.19
$MAG,5606.151,-0.364,0.106,-0.870,26.2
$IMU,5606.153,-0.244,-0.183,-0.122,0.01513,-0.01953,1.01464,27.18
$IMU,5606.155,-0.305,-0.061,-0.122,0.01367,-0.02441,1.01416,27.18
$IMU,5606.157,-0.244,0.000,-0.061,0.01025,-0.02587,1.01416,27.18
$IMU,5606.160,-0.305,0.000,-0.183,0.01123,-0.02587,1.01464,27.18
$MAG,5606.161,-0.372,0.106,-0.870,26.2
$IMU,5606.162,-0.305,0.000,-0.122,0.01123,-0.02197,1.01464,27.18
$IMU,5606.164,-0.244,-0.061,-0.061,0.01367,-0.02197,1.01464,27.18
$IMU,5606.167,-0.244,-0.061,-0.183,0.01171,-0.02148,1.01318,27.18
$IMU,5606.169,-0.305,0.000,-0.183,0.01220,-0.02246,1.01220,27.18
$MAG,5606.171,-0.370,0.102,-0.865,26.2
$IMU,5606.171,-0.244,-0.061,-0.183,0.01367,-0.02197,1.01220,27.14
$IMU,5606.174,-0.305,0.061,-0.183,0.01269,-0.02441,1.01367,27.14
$IMU,5606.176,-0.305,0.061,-0.122,0.01269,-0.02099,1.01416,27.14
$IMU,5606.178,-0.305,0.061,-0.122,0.01269,-0.02099,1.01611,27.14
$MAG,5606.181,-0.369,0.112,-0.868,26.2
$IMU,5606.181,-0.244,-0.061,-0.122,0.01123,-0.02246,1.01562,27.14
$IMU,5606.183,-0.183,-0.061,-0.122,0.01660,-0.02197,1.01806,27.14
$IMU,5606.185,-0.244,0.061,-0.122,0.01611,-0.02441,1.01562,27.14
$IMU,5606.188,-0.305,0.000,-0.183,0.01269,-0.02197,1.01416,27.14
$IMU,5606.190,-0.244,0.122,-0.122,0.01367,-0.02246,1.01562,27.18
$MAG,5606.191,-0.367,0.111,-0.873,26.2
$IMU,5606.192,-0.244,0.000,-0.122,0.01464,-0.02246,1.01513,27.18
$BARO,5606.195,86793.47,27.35
$IMU,5606.195,-0.183,-0.061,-0.122,0.01318,-0.02294,1.01416,27.18
$IMU,5606.197,-0.244,-0.061,-0.122,0.01318,-0.02343,1.01562,27.18
$IMU,5606.199,-0.305,0.000,-0.122,0.01171,-0.02148,1.01416,27.18
$MAG,5606.202,-0.373,0.108,-0.870,26.2
$IMU,5606.202,-0.244,-0.061,-0.183,0.01367,-0.02197,1.01611,27.18
$IMU,5606.204,-0.305,0.000,-0.122,0.01269,-0.02148,1.01806,27.18
$IMU,5606.207,-0.305,0.000,-0.122,0.01318,-0.02050,1.01367,27.18
$IMU,5606.209,-0.244,0.000,-0.122,0.01269,-0.01953,1.01757,27.17
$IMU,5606.211,-0.244,0.000,-0.122,0.01269,-0.02050,1.01757,27.17
$MAG,5606.212,-0.376,0.103,-0.876,26.2
$IMU,5606.214,-0.305,-0.061,-0.122,0.01367,-0.02441,1.01562,27.17
$IMU,5606.216,-0.305,0.061,-0.122,0.01123,-0.02099,1.01611,27.17
$IMU,5606.218,-0.183,-0.061,-0.122,0.01464,-0.02197,1.01220,27.17
$IMU,5606.221,-0.183,-0.061,-0.122,0.01464,-0.02294,1.01611,27.17
$MAG,5606.222,-0.378,0.118,-0.861,26.3
$IMU,5606.223,-0.244,0.000,-0.122,0.01708,-0.02392,1.01464,27.17
$IMU,5606.225,-0.244,-0.061,-0.183,0.01220,-0.02050,1.01464,27.17
$IMU,5606.228,-0.305,0.061,-0.183,0.01513,-0.02392,1.01367,27.17
$IMU,5606.230,-0.305,0.000,-0.122,0.01318,-0.02441,1.01367,27.17
$MAG,5606.232,-0.375,0.106,-0.871,26.2
$IMU,5606.232,-0.305,0.000,-0.183,0.01367,-0.02294,1.01708,27.17
$IMU,5606.235,-0.305,-0.061,-0.122,0.01464,-0.02343,1.01513,27.17
$IMU,5606.237,-0.244,-0.061,-0.122,0.01367,-0.02294,1.01660,27.17
$IMU,5606.239,-0.305,0.122,-0.183,0.01171,-0.01953,1.01318,27.17
$MAG,5606.242,-0.375,0.115,-0.873,26.1
$IMU,5606.242,-0.305,-0.061,-0.183,0.01171,-0.02294,1.01562,27.17
$IMU,5606.244,-0.305,-0.061,-0.122,0.01318,-0.02441,1.01513,27.17
$IMU,5606.246,-0.305,-0.061,-0.183,0.01171,-0.02392,1.01367,27.21
$IMU,5606.249,-0.305,-0.061,-0.183,0.01416,-0.02441,1.01367,27.21
$IMU,5606.251,-0.244,0.061,-0.122,0.01171,-0.02148,1.01318,27.21
$MAG,5606.252,-0.378,0.102,-0.870,26.2
$IMU,5606.253,-0.244,-0.061,-0.122,0.00927,-0.02294,1.01318,27.21
$IMU,5606.256,-0.305,-0.061,-0.122,0.01367,-0.02294,1.01367,27.21
$IMU,5606.258,-0.305,0.000,-0.122,0.01464,-0.02197,1.01513,27.21
$IMU,5606.260,-0.244,-0.122,-0.122,0.01367,-0.02392,1.01513,27.21
$MAG,5606.262,-0.375,0.102,-0.868,26.2
$IMU,5606.263,-0.183,0.000,-0.244,0.01708,-0.02343,1.01708,27.21
$IMU,5606.265,-0.305,0.122,-0.183,0.01367,-0.02343,1.01464,27.21
$IMU,5606.268,-0.305,0.061,-0.122,0.01416,-0.02294,1.01513,27.21
$IMU,5606.270,-0.244,-0.061,-0.183,0.01220,-0.02343,1.01367,27.21
$MAG,5606.272,-0.372,0.103,-0.874,26.2
$IMU,5606.272,-0.183,-0.122,-0.183,0.00976,-0.02197,1.01562,27.21
$IMU,5606.275,-0.244,-0.061,-0.122,0.01220,-0.02441,1.01464,27.21
$IMU,5606.277,-0.244,0.000,-0.183,0.01074,-0.02343,1.01269,27.21
$IMU,5606.279,-0.305,-0.061,-0.183,0.01123,-0.02148,1.01562,27.21
$MAG,5606.282,-0.372,0.106,-0.870,26.2
$IMU,5606.282,-0.244,-0.061,-0.061,0.01220,-0.02490,1.01318,27.21
$IMU,5606.284,-0.244,-0.061,-0.122,0.01464,-0.02050,1.01318,27.21
$IMU,5606.286,-0.183,-0.122,-0.183,0.01464,-0.02099,1.01806,27.21
$IMU,5606.289,-0.244,0.000,-0.122,0.01123,-0.02197,1.01806,27.21
$IMU,5606.291,-0.183,-0.183,-0.183,0.01123,-0.02246,1.01708,27.21
$MAG,5606.292,-0.370,0.108,-0.864,26.2
$IMU,5606.293,-0.305,0.061,-0.183,0.01269,-0.02441,1.01464,27.21
$BARO,5606.296,86800.52,27.35
$IMU,5606.296,-0.183,-0.061,-0.122,0.01318,-0.02636,1.01318,27.21
$IMU,5606.298,-0.305,0.061,-0.183,0.01171,-0.02441,1.01416,27.21
$IMU,5606.300,-0.244,-0.061,-0.122,0.01367,-0.02441,1.01367,27.21
$MAG,5606.302,-0.384,0.108,-0.871,26.1
$IMU,5606.303,-0.244,-0.061,-0.122,0.01074,-0.02392,1.01708,27.20
$IMU,5606.305,-0.427,0.183,-0.183,0.01171,-0.02392,1.01513,27.20
$IMU,5606.307,-0.244,-0.122,-0.183,0.01611,-0.02197,1.01611,27.20
$IMU,5606.310,-0.244,-0.183,-0.122,0.01220,-0.02392,1.01367,27.20
$MAG,5606.312,-0.373,0.103,-0.868,26.2
$IMU,5606.312,-0.244,-0.122,-0.122,0.01464,-0.02197,1.01416,27.20
$IMU,5606.314,-0.244,-0.183,-0.183,0.01416,-0.02343,1.01416,27.20
$IMU,5606.317,-0.305,0.061,-0.183,0.01220,-0.02587,1.01513,27.20
$IMU,5606.319,-0.244,0.000,-0.183,0.01416,-0.02246,1.01513,27.20
$IMU,5606.321,-0.305,0.000,-0.183,0.01074,-0.02148,1.01660,27.21
$MAG,5606.322,-0.373,0.106,-0.877,26.2
$IMU,5606.324,-0.244,-0.061,-0.244,0.01269,-0.02148,1.01416,27.21
$IMU,5606.326,-0.305,0.061,-0.183,0.01123,-0.02050,1.01464,27.21
$IMU,5606.328,-0.305,0.000,-0.244,0.01464,-0.02392,1.01513,27.21
$IMU,5606.331,-0.244,-0.122,-0.183,0.01220,-0.02294,1.01611,27.21
$MAG,5606.333,-0.373,0.102,-0.864,26.1
$IMU,5606.333,-0.305,0.061,-0.183,0.01562,-0.02783,1.01220,27.21
$IMU,5606.336,-0.244,-0.061,-0.183,0.01416,-0.02099,1.01318,27.21
$IMU,5606.338,-0.244,-0.061,-0.183,0.01318,-0.02294,1.01757,27.21
$IMU,5606.340,-0.305,0.122,-0.183,0.01123,-0.02294,1.01318,27.17
$MAG,5606.343,-0.367,0.105,-0.874,26.3
$IMU,5606.343,-0.244,0.000,-0.122,0.01123,-0.02587,1.01367,27.17
$IMU,5606.345,-0.244,0.000,-0.122,0.01269,-0.02246,1.01708,27.17
$IMU,5606.347,-0.244,0.000,-0.122,0.01367,-0.02050,1.01220,27.17
$IMU,5606.350,-0.183,-0.183,-0.122,0.01367,-0.02294,1.01171,27.17
$IMU,5606.352,-0.305,0.061,-0.122,0.01171,-0.02246,1.01416,27.17
$MAG,5606.353,-0.370,0.106,-0.867,26.2
$IMU,5606.354,-0.305,0.061,-0.122,0.01367,-0.02050,1.01611,27.17
$IMU,5606.357,-0.305,0.000,-0.183,0.01416,-0.02099,1.01416,27.17
$IMU,5606.359,-0.244,-0.122,-0.122,0.01660,-0.02148,1.01660,27.21
$IMU,5606.361,-0.305,0.061,-0.122,0.01318,-0.02343,1.01708,27.21
$MAG,5606.363,-0.370,0.114,-0.865,26.2
$IMU,5606.364,-0.244,-0.122,-0.183,0.00976,-0.02441,1.01171,27.21
$IMU,5606.366,-0.244,-0.122,-0.122,0.01171,-0.02294,1.01416,27.21
$IMU,5606.368,-0.244,-0.061,-0.183,0.01220,-0.02294,1.01513,27.21
$IMU,5606.371,-0.244,0.061,-0.122,0.01367,-0.02490,1.01367,27.21
$MAG,5606.373,-0.372,0.114,-0.876,26.3
$IMU,5606.373,-0.183,-0.122,-0.183,0.01269,-0.02392,1.01416,27.21
$IMU,5606.375,-0.183,-0.122,-0.122,0.01123,-0.02050,1.01513,27.21
$IMU,5606.378,-0.183,-0.061,-0.122,0.01318,-0.02148,1.01220,27.22
$IMU,5606.380,-0.244,0.000,-0.122,0.01416,-0.02343,1.01562,27.22
$IMU,5606.382,-0.305,0.000,-0.183,0.01318,-0.02099,1.01611,27.22
$MAG,5606.383,-0.370,0.105,-0.865,26.1
$IMU,5606.385,-0.305,0.000,-0.183,0.01416,-0.02636,1.01708,27.22
$IMU,5606.387,-0.305,0.000,-0.244,0.01220,-0.02343,1.01464,27.22
$IMU,5606.389,-0.244,-0.122,-0.122,0.01123,-0.02490,1.01757,27.22
$IMU,5606.392,-0.244,-0.061,-0.122,0.01562,-0.02099,1.01367,27.22
$MAG,5606.393,-0.366,0.103,-0.870,26.2
$IMU,5606.394,-0.366,0.122,-0.061,0.01367,-0.02099,1.01660,27.22
$IMU,5606.397,-0.366,0.122,-0.183,0.01318,-0.02050,1.01513,27.18
$BARO,5606.398,86805.15,27.35
$IMU,5606.399,-0.244,0.000,-0.183,0.01464,-0.02148,1.01318,27.18
$IMU,5606.401,-0.244,0.000,-0.183,0.00830,-0.02441,1.01611,27.18
$MAG,5606.403,-0.379,0.100,-0.870,26.1
$IMU,5606.404,-0.305,0.000,-0.061,0.01318,-0.02880,1.01171,27.18
$IMU,5606.406,-0.244,0.061,-0.183,0.01367,-0.02343,1.01269,27.18
$IMU,5606.408,-0.305,0.061,-0.122,0.01367,-0.02197,1.01757,27.18
$IMU,5606.411,-0.366,0.122,-0.122,0.01220,-0.02343,1.01611,27.18
$MAG,5606.413,-0.370,0.105,-0.865,26.1
$IMU,5606.413,-0.244,0.000,-0.122,0.01171,-0.02294,1.01562,27.18
$IMU,5606.415,-0.244,-0.244,-0.244,0.01074,-0.02050,1.01611,27.20
$IMU,5606.418,-0.244,-0.122,-0.183,0.01318,-0.02148,1.01269,27.20
$IMU,5606.420,-0.244,0.061,-0.122,0.01367,-0.02343,1.01416,27.20
$IMU,5606.422,-0.183,-0.061,-0.122,0.01318,-0.02392,1.01367,27.20
$MAG,5606.423,-0.372,0.112,-0.871,26.1
$IMU,5606.425,-0.305,0.122,-0.122,0.01220,-0.02539,1.01464,27.20
$IMU,5606.427,-0.244,0.000,-0.244,0.01074,-0.02148,1.01611,27.20
$IMU,5606.429,-0.244,-0.183,-0.183,0.01171,-0.02392,1.01123,27.20
$IMU,5606.432,-0.122,-0.061,-0.122,0.01074,-0.02148,1.01367,27.20
$MAG,5606.433,-0.381,0.108,-0.870,26.2
$IMU,5606.434,-0.305,-0.061,-0.122,0.01220,-0.02099,1.01220,27.20
$IMU,5606.436,-0.305,0.000,-0.122,0.01220,-0.02343,1.01318,27.20
$IMU,5606.439,-0.244,-0.061,-0.183,0.01367,-0.02246,1.01318,27.20
$IMU,5606.441,-0.183,-0.061,-0.183,0.00976,-0.02246,1.01464,27.20
$MAG,5606.443,-0.375,0.106,-0.873,26.2
$IMU,5606.443,-0.244,-0.183,-0.183,0.01367,-0.02197,1.01416,27.20
$HUM,5606.445,38.1,27.8
$IMU,5606.446,-0.305,-0.061,-0.061,0.01171,-0.02343,1.01513,27.20
$IMU,5606.448,-0.305,-0.061,-0.122,0.01464,-0.02490,1.01416,27.20
$IMU,5606.450,-0.244,-0.061,-0.183,0.01220,-0.01953,1.01562,27.20
$MAG,5606.453,-0.366,0.106,-0.871,26.3
$IMU,5606.453,-0.305,0.000,-0.122,0.01171,-0.02099,1.01269,27.20
$IMU,5606.455,-0.183,-0.061,-0.122,0.01318,-0.02050,1.01220,27.20
$IMU,5606.458,-0.244,0.000,-0.183,0.01416,-0.02441,1.01708,27.20
$IMU,5606.460,-0.366,0.122,-0.122,0.01416,-0.02148,1.01464,27.20
$IMU,5606.462,-0.244,0.000,-0.122,0.01074,-0.02294,1.01660,27.20
$MAG,5606.464,-0.372,0.103,-0.871,26.2
$IMU,5606.465,-0.305,0.061,-0.122,0.01416,-0.02392,1.01611,27.20
$IMU,5606.467,-0.305,0.122,-0.183,0.01269,-0.02294,1.01220,27.20
$IMU,5606.469,-0.183,-0.122,-0.122,0.00976,-0.02246,1.01220,27.20
$IMU,5606.472,-0.244,-0.122,-0.183,0.01074,-0.02636,1.01464,27.17
$MAG,5606.474,-0.376,0.112,-0.871,26.2
$IMU,5606.474,-0.305,0.000,-0.122,0.00976,-0.02490,1.01416,27.17
$IMU,5606.476,-0.305,0.122,-0.183,0.01123,-0.02246,1.01757,27.17
$IMU,5606.479,-0.244,-0.122,-0.183,0.01367,-0.02197,1.01464,27.17
$IMU,5606.481,-0.244,-0.183,-0.122,0.01074,-0.02343,1.01513,27.17
$IMU,5606.483,-0.305,0.000,-0.061,0.01318,-0.02294,1.01562,27.17
$MAG,5606.484,-0.375,0.108,-0.870,26.2
$IMU,5606.486,-0.244,-0.122,-0.183,0.01220,-0.02148,1.01464,27.17
$IMU,5606.488,-0.183,-0.122,-0.183,0.01367,-0.02197,1.01464,27.17
$IMU,5606.490,-0.183,-0.122,-0.183,0.01513,-0.02246,1.01708,27.22
$IMU,5606.493,-0.244,0.000,-0.122,0.01513,-0.02392,1.01220,27.22
$MAG,5606.494,-0.372,0.114,-0.870,26.2
$IMU,5606.495,-0.244,-0.061,-0.122,0.01220,-0.02246,1.01123,27.22
$IMU,5606.497,-0.244,0.000,-0.183,0.01025,-0.02294,1.01562,27.22
$BARO,5606.499,86802.64,27.34
$IMU,5606.500,-0.305,0.061,-0.183,0.01269,-0.02294,1.01318,27.22
$IMU,5606.502,-0.244,-0.061,-0.122,0.01318,-0.02343,1.01367,27.22
$MAG,5606.504,-0.367,0.097,-0.871,26.2
$IMU,5606.504,-0.183,-0.061,-0.122,0.01220,-0.02050,1.01464,27.22
$IMU,5606.507,-0.305,0.000,-0.122,0.01318,-0.02099,1.01757,27.22
$IMU,5606.509,-0.183,-0.122,-0.183,0.01318,-0.02099,1.01855,27.21
$IMU,5606.511,-0.244,-0.122,-0.122,0.01464,-0.02587,1.01416,27.21
$MAG,5606.514,-0.369,0.105,-0.871,26.2
$IMU,5606.514,-0.366,0.000,-0.122,0.01269,-0.02294,1.01269,27.21
$IMU,5606.516,-0.305,-0.061,-0.183,0.01416,-0.02294,1.01269,27.21
$IMU,5606.519,-0.305,-0.061,-0.183,0.01074,-0.02636,1.01513,27.21
$IMU,5606.521,-0.244,-0.061,-0.122,0.01220,-0.02294,1.01123,27.21
$IMU,5606.523,-0.244,0.000,-0.183,0.01513,-0.02392,1.01171,27.21
$MAG,5606.524,-0.369,0.109,-0.868,26.3
$IMU,5606.526,-0.244,0.000,-0.183,0.01562,-0.02197,1.01464,27.21
$IMU,5606.528,-0.305,0.061,-0.122,0.01269,-0.02392,1.01416,27.22
$IMU,5606.530,-0.305,-0.061,-0.122,0.00976,-0.02099,1.01513,27.22
$IMU,5606.533,-0.366,-0.122,-0.183,0.01318,-0.02294,1.01562,27.22
$MAG,5606.534,-0.372,0.117,-0.871,26.2
$IMU,5606.535,-0.305,0.061,-0.122,0.01367,-0.02148,1.01513,27.22
$IMU,5606.537,-0.366,0.305,-0.122,0.01513,-0.02148,1.01513,27.22
$IMU,5606.540,-0.305,0.061,-0.183,0.01220,-0.02343,1.01611,27.22
$IMU,5606.542,-0.305,0.061,-0.122,0.01123,-0.02343,1.01660,27.22
$MAG,5606.544,-0.367,0.111,-0.864,26.2
$IMU,5606.544,-0.244,0.000,-0.183,0.01074,-0.02148,1.01416,27.22
$IMU,5606.547,-0.183,-0.122,-0.183,0.01123,-0.02539,1.01367,27.21
$IMU,5606.549,-0.244,-0.061,-0.122,0.01074,-0.02197,1.01123,27.21
$IMU,5606.551,-0.244,-0.061,-0.061,0.01025,-0.02392,1.01562,27.21
$MAG,5606.554,-0.376,0.117,-0.876,26.3
$IMU,5606.554,-0.305,0.122,-0.122,0.01416,-0.02197,1.01416,27.21
$IMU,5606.556,-0.366,0.000,-0.122,0.01171,-0.02343,1.01562,27.21
$IMU,5606.558,-0.305,0.000,-0.122,0.01220,-0.02343,1.01416,27.21
$IMU,5606.561,-0.244,0.000,-0.183,0.01513,-0.02099,1.01562,27.21
$IMU,5606.563,-0.305,-0.122,-0.122,0.01416,-0.02197,1.01513,27.21
$MAG,5606.564,-0.370,0.108,-0.867,26.2
$IMU,5606.565,-0.305,0.061,-0.122,0.01513,-0.02197,1.01416,27.19
$IMU,5606.568,-0.305,0.061,-0.122,0.01074,-0.02099,1.01416,27.19
$IMU,5606.570,-0.244,-0.122,-0.122,0.01074,-0.02343,1.01513,27.19
$IMU,5606.572,-0.305,-0.061,-0.122,0.01171,-0.02197,1.01562,27.19
$MAG,5606.574,-0.373,0.114,-0.874,26.1
$IMU,5606.575,-0.244,-0.061,-0.183,0.01464,-0.02099,1.01806,27.19
$IMU,5606.577,-0.244,0.000,-0.183,0.01171,-0.02490,1.01367,27.19
$IMU,5606.580,-0.305,0.122,-0.122,0.01269,-0.02099,1.01367,27.19
$IMU,5606.582,-0.305,0.061,-0.122,0.01464,-0.02148,1.01513,27.19
$IMU,5606.584,-0.244,-0.061,-0.122,0.01074,-0.02343,1.01611,27.19
$MAG,5606.585,-0.373,0.108,-0.870,26.2
$IMU,5606.587,-0.244,-0.183,-0.183,0.00976,-0.02587,1.01416,27.19
$IMU,5606.589,-0.183,-0.183,-0.183,0.01416,-0.02343,1.01464,27.19
$IMU,5606.591,-0.183,-0.183,-0.061,0.01660,-0.02441,1.01416,27.19
$IMU,5606.594,-0.244,-0.061,-0.061,0.01416,-0.02441,1.01562,27.19
$MAG,5606.595,-0.360,0.106,-0.873,26.2
$IMU,5606.596,-0.244,0.000,-0.122,0.01269,-0.02539,1.01367,27.19
$IMU,5606.598,-0.305,0.000,-0.183,0.01416,-0.02441,1.01318,27.19
$BARO,5606.601,86800.32,27.35
$IMU,5606.601,-0.305,-0.122,-0.061,0.01220,-0.01904,1.01513,27.19
$IMU,5606.603,-0.305,0.000,-0.122,0.01123,-0.02099,1.01416,27.23
$MAG,5606.605,-0.373,0.109,-0.867,26.2
$IMU,5606.605,-0.305,0.122,-0.122,0.00976,-0.02539,1.01318,27.23
$IMU,5606.608,-0.305,0.000,-0.183,0.01416,-0.02392,1.01318,27.23
$IMU,5606.610,-0.305,-0.122,-0.183,0.01220,-0.02050,1.01562,27.23
$IMU,5606.612,-0.183,-0.122,-0.183,0.01123,-0.02099,1.01318,27.23
$MAG,5606.615,-0.375,0.102,-0.874,26.1
$IMU,5606.615,-0.305,0.183,-0.122,0.01367,-0.02148,1.01464,27.23
$IMU,5606.617,-0.305,0.000,-0.122,0.01367,-0.02294,1.01708,27.23
$IMU,5606.619,-0.305,0.000,-0.061,0.01367,-0.02246,1.01562,27.23
$IMU,5606.622,-0.244,0.061,-0.122,0.01513,-0.02197,1.01416,27.14
$IMU,5606.624,-0.244,0.000,-0.122,0.01220,-0.02099,1.01367,27.14
$MAG,5606.625,-0.375,0.097,-0.861,26.2
$IMU,5606.626,-0.183,-0.061,-0.244,0.01269,-0.02294,1.01464,27.14
$IMU,5606.629,-0.183,-0.122,-0.122,0.01367,-0.02197,1.01464,27.14
$IMU,5606.631,-0.244,0.000,-0.122,0.01220,-0.02246,1.01416,27.14
$IMU,5606.633,-0.244,-0.061,-0.122,0.01318,-0.02197,1.01367,27.14
$MAG,5606.635,-0.378,0.112,-0.877,26.3
$IMU,5606.636,-0.122,-0.122,-0.122,0.01074,-0.02343,1.01318,27.14
$IMU,5606.638,-0.183,-0.061,-0.122,0.01123,-0.02246,1.01416,27.14
$IMU,5606.640,-0.305,-0.061,-0.183,0.01074,-0.02392,1.01562,27.19
$IMU,5606.643,-0.183,-0.061,-0.122,0.01171,-0.01953,1.01416,27.19
$MAG,5606.645,-0.370,0.112,-0.879,26.2
$IMU,5606.645,-0.183,0.000,-0.183,0.01220,-0.02099,1.01464,27.19
$IMU,5606.648,-0.122,-0.122,-0.122,0.01318,-0.02050,1.01757,27.19
$IMU,5606.650,-0.244,0.000,-0.122,0.01123,-0.02294,1.01464,27.19
$IMU,5606.652,-0.244,-0.061,-0.061,0.01416,-0.02343,1.01513,27.19
$MAG,5606.655,-0.373,0.105,-0.873,26.2
$IMU,5606.655,-0.244,-0.061,-0.122,0.01416,-0.02294,1.01220,27.19
$IMU,5606.657,-0.305,-0.061,-0.183,0.01660,-0.02197,1.01464,27.19
$IMU,5606.659,-0.183,-0.061,-0.122,0.01562,-0.02294,1.01513,27.21
$IMU,5606.662,-0.305,-0.061,-0.122,0.01416,-0.02636,1.01562,27.21
$IMU,5606.664,-0.244,-0.061,-0.183,0.01171,-0.02294,1.01416,27.21
$MAG,5606.665,-0.367,0.109,-0.873,26.2
$IMU,5606.666,-0.305,0.061,-0.183,0.01220,-0.02099,1.01513,27.21
$IMU,5606.669,-0.305,0.000,-0.183,0.01416,-0.02246,1.01318,27.21
$IMU,5606.671,-0.305,0.000,-0.122,0.01220,-0.02392,1.01269,27.21
$IMU,5606.673,-0.305,0.061,-0.122,0.01464,-0.02441,1.01318,27.21
$MAG,5606.675,-0.373,0.105,-0.865,26.3
$IMU,5606.676,-0.244,-0.061,-0.122,0.01416,-0.02294,1.01367,27.21
$IMU,5606.678,-0.244,-0.122,-0.122,0.01220,-0.02539,1.01611,27.19
$IMU,5606.680,-0.244,0.000,-0.122,0.01269,-0.02197,1.01806,27.19
$IMU,5606.683,-0.244,0.000,-0.183,0.01318,-0.02392,1.01757,27.19
$MAG,5606.685,-0.373,0.106,-0.874,26.1
$IMU,5606.685,-0.305,-0.061,-0.183,0.01269,-0.02539,1.01562,27.19
$IMU,5606.687,-0.244,-0.061,-0.183,0.01464,-0.02539,1.01416,27.19
$IMU,5606.690,-0.183,-0.122,-0.183,0.01123,-0.02148,1.01464,27.19
$IMU,5606.692,-0.305,0.000,-0.183,0.01123,-0.02099,1.01611,27.19
$IMU,5606.694,-0.366,0.122,-0.122,0.01269,-0.02246,1.01855,27.19
$MAG,5606.695,-0.376,0.109,-0.864,26.3
$IMU,5606.697,-0.305,0.000,-0.122,0.01318,-0.02246,1.01416,27.18
$IMU,5606.699,-0.305,0.000,-0.183,0.01220,-0.02197,1.01562,27.18
$IMU,5606.701,-0.183,-0.061,-0.183,0.01269,-0.02636,1.01611,27.18
$BARO,5606.702,86791.47,27.35
$IMU,5606.704,-0.183,-0.122,-0.183,0.01220,-0.02734,1.01464,27.18
$MAG,5606.706,-0.369,0.112,-0.868,26.1
$IMU,5606.706,-0.244,-0.122,-0.122,0.00976,-0.02197,1.01513,27.18
$IMU,5606.709,-0.305,0.000,-0.122,0.01269,-0.02050,1.01708,27.18
$IMU,5606.711,-0.305,0.000,-0.122,0.01220,-0.02197,1.01562,27.18
$IMU,5606.713,-0.244,0.000,-0.122,0.01464,-0.02539,1.01367,27.18
$MAG,5606.716,-0.361,0.106,-0.864,26.2
$IMU,5606.716,-0.183,-0.061,-0.183,0.01562,-0.02197,1.01416,27.18
$IMU,5606.718,-0.122,-0.061,-0.122,0.01416,-0.02148,1.01464,27.18
$IMU,5606.720,-0.244,0.000,-0.061,0.01269,-0.02441,1.01513,27.18
$IMU,5606.723,-0.305,0.061,-0.122,0.01464,-0.02392,1.01269,27.18
$IMU,5606.725,-0.305,0.000,-0.122,0.01269,-0.02294,1.01220,27.18
$MAG,5606.726,-0.375,0.108,-0.870,26.1
$IMU,5606.727,-0.244,-0.122,-0.122,0.01416,-0.02441,1.01513,27.18
$IMU,5606.730,-0.183,-0.122,-0.122,0.01318,-0.02441,1.01513,27.18
$IMU,5606.732,-0.366,0.061,-0.183,0.01220,-0.02490,1.01171,27.18
$IMU,5606.734,-0.305,0.000,-0.183,0.01464,-0.02539,1.01611,27.25
$MAG,5606.736,-0.370,0.111,-0.868,26.1
$IMU,5606.737,-0.366,0.061,-0.122,0.01025,-0.02294,1.01269,27.25
$IMU,5606.739,-0.305,-0.122,0.000,0.01074,-0.02246,1.01562,27.25
$IMU,5606.741,-0.244,0.000,-0.183,0.01464,-0.02392,1.01318,27.25
$IMU,5606.744,-0.305,0.000,-0.122,0.01464,-0.02099,1.01562,27.25
$MAG,5606.746,-0.378,0.105,-0.868,26.2
$IMU,5606.746,-0.244,0.000,-0.183,0.01171,-0.02197,1.01269,27.25
$IMU,5606.748,-0.305,0.000,-0.183,0.01464,-0.01953,1.01464,27.25
$IMU,5606.751,-0.305,-0.061,-0.183,0.01171,-0.02148,1.01611,27.25
$IMU,5606.753,-0.183,0.000,-0.183,0.01367,-0.02246,1.01562,27.23
$IMU,5606.755,-0.366,0.061,-0.122,0.01367,-0.02099,1.01318,27.23
$MAG,5606.756,-0.373,0.111,-0.868,26.2
$IMU,5606.758,-0.305,0.183,-0.122,0.01171,-0.02050,1.01318,27.23
$IMU,5606.760,-0.305,0.122,-0.183,0.01464,-0.01855,1.01269,27.23
$IMU,5606.762,-0.305,0.000,-0.183,0.01464,-0.02685,1.01513,27.23
$IMU,5606.765,-0.244,-0.061,-0.061,0.01269,-0.02490,1.01464,27.23
$MAG,5606.766,-0.378,0.108,-0.873,26.2
$IMU,5606.767,-0.244,-0.122,-0.122,0.01171,-0.02636,1.01464,27.23
$IMU,5606.770,-0.244,-0.122,-0.183,0.01513,-0.02246,1.01757,27.23
$IMU,5606.772,-0.305,0.000,-0.183,0.01464,-0.02441,1.01464,27.23
$IMU,5606.774,-0.305,-0.061,-0.183,0.01464,-0.02392,1.01171,27.23
$MAG,5606.776,-0.375,0.114,-0.879,26.2
$IMU,5606.777,-0.305,-0.061,-0.122,0.01318,-0.02050,1.01513,27.23
$IMU,5606.779,-0.183,-0.061,-0.122,0.01416,-0.02441,1.01464,27.23
$IMU,5606.781,-0.244,-0.061,-0.183,0.01171,-0.02294,1.01513,27.23
$IMU,5606.784,-0.122,-0.061,-0.183,0.01416,-0.02392,1.01416,27.23
$MAG,5606.786,-0.375,0.112,-0.873,26.5
$IMU,5606.786,-0.244,-0.122,-0.244,0.01220,-0.02197,1.01562,27.23
$IMU,5606.788,-0.244,-0.061,-0.183,0.01318,-0.02246,1.01367,27.23
$IMU,5606.791,-0.305,0.000,-0.122,0.01171,-0.02343,1.01269,27.21
$IMU,5606.793,-0.183,-0.061,-0.183,0.01464,-0.02343,1.01562,27.21
$IMU,5606.795,-0.183,-0.061,-0.183,0.01416,-0.02001,1.01367,27.21
$MAG,5606.796,-0.370,0.106,-0.867,26.2
$IMU,5606.798,-0.305,0.000,-0.183,0.01171,-0.02490,1.01269,27.21
$IMU,5606.800,-0.244,-0.122,-0.122,0.01416,-0.02197,1.01416,27.21
$IMU,5606.802,-0.244,0.000,-0.183,0.01464,-0.02197,1.01513,27.21
$BARO,5606.803,86800.71,27.35
$IMU,5606.805,-0.366,0.000,-0.183,0.01318,-0.02343,1.01464,27.21
$MAG,5606.806,-0.375,0.102,-0.865,26.2
$IMU,5606.807,-0.305,0.000,-0.122,0.01562,-0.02490,1.01513,27.21
$IMU,5606.809,-0.244,0.000,-0.122,0.01611,-0.02343,1.01269,27.19
$IMU,5606.812,-0.244,0.122,-0.122,0.01220,-0.01953,1.01416,27.19
$IMU,5606.814,-0.244,0.000,-0.122,0.01416,-0.02392,1.01318,27.19
$MAG,5606.816,-0.375,0.105,-0.867,26.2
$IMU,5606.816,-0.244,0.000,0.000,0.01513,-0.02197,1.01318,27.19
$IMU,5606.819,-0.305,-0.061,-0.183,0.01367,-0.02392,1.01464,27.19
$IMU,5606.821,-0.305,-0.061,-0.061,0.01416,-0.02246,1.01660,27.19
$IMU,5606.823,-0.305,0.000,-0.061,0.01220,-0.02246,1.01562,27.19
$IMU,5606.826,-0.305,0.000,-0.183,0.01220,-0.02246,1.01220,27.19
$MAG,5606.826,-0.372,0.111,-0.870,26.2
$IMU,5606.828,-0.244,-0.061,-0.122,0.01416,-0.02197,1.01416,27.23
$IMU,5606.831,-0.305,0.061,-0.183,0.01464,-0.02441,1.01269,27.23
$IMU,5606.833,-0.244,-0.122,-0.183,0.01513,-0.02294,1.01513,27.23
$IMU,5606.835,-0.183,-0.122,-0.122,0.01464,-0.02148,1.01757,27.23
$MAG,5606.837,-0.376,0.108,-0.874,26.1
$IMU,5606.838,-0.305,0.000,-0.122,0.01269,-0.02197,1.01269,27.23
$IMU,5606.840,-0.305,-0.061,-0.122,0.01171,-0.02343,1.01318,27.23
$IMU,5606.842,-0.244,-0.183,-0.122,0.01318,-0.02392,1.01708,27.23
$IMU,5606.845,-0.244,-0.122,-0.122,0.01367,-0.02392,1.01367,27.23
$MAG,5606.847,-0.367,0.111,-0.870,26.1
$IMU,5606.847,-0.244,-0.061,-0.183,0.01318,-0.02441,1.01318,27.18
$IMU,5606.849,-0.305,-0.061,-0.122,0.01171,-0.01904,1.01562,27.18
$IMU,5606.852,-0.305,-0.122,-0.183,0.01123,-0.02246,1.01367,27.18
$IMU,5606.854,-0.244,-0.061,-0.183,0.01220,-0.01953,1.01660,27.18
$IMU,5606.856,-0.305,0.000,-0.183,0.01171,-0.02246,1.01660,27.18
$MAG,5606.857,-0.370,0.108,-0.870,26.1
$IMU,5606.859,-0.244,0.000,-0.183,0.01318,-0.02490,1.01660,27.18
$IMU,5606.861,-0.244,-0.061,-0.122,0.01074,-0.02197,1.01269,27.18
$IMU,5606.863,-0.244,-0.061,-0.061,0.01171,-0.02441,1.01562,27.18
$IMU,5606.866,-0.244,0.000,-0.122,0.01123,-0.02490,1.01416,27.23
$MAG,5606.867,-0.373,0.114,-0.871,26.1
$IMU,5606.868,-0.305,0.061,-0.183,0.01025,-0.02294,1.01318,27.23
