$FLYS,1
$VAR,FIRMWARE_VER,v2024.12.30
$VAR,DEVICE_ID,0017003b3253501720373657
$VAR,SESSION_ID,b95240970f9bf7ee209e825c
$COL,BARO,time,pressure,temperature
$UNIT,BARO,s,Pa,deg C
$COL,HUM,time,humidity,temperature
$UNIT,HUM,s,percent,deg C
$COL,MAG,time,x,y,z,temperature
$UNIT,MAG,s,gauss,gauss,gauss,deg C
$COL,IMU,time,wx,wy,wz,ax,ay,az,temperature
$UNIT,IMU,s,deg/s,deg/s,deg/s,g,g,g,deg C
$COL,TIME,time,tow,week
$UNIT,TIME,s,s,
$COL,VBAT,time,voltage
$UNIT,VBAT,s,volt
$DATA
$IMU,26835.106,10.620,-24.536,-27.832,0.39404,0.74658,0.15283,27.76
$IMU,26835.109,-8.605,-15.502,-13.122,0.47753,0.89892,0.20312,27.76
$IMU,26835.111,-1.525,0.061,-1.342,0.44677,0.90234,0.21972,27.76
$IMU,26835.113,3.784,-3.723,-0.305,0.41601,0.92529,0.20751,27.76
$IMU,26835.116,16.479,-8.544,-12.695,0.38037,0.93310,0.21044,27.76
$IMU,26835.118,6.286,-7.812,-12.634,0.34179,0.93115,0.20361,27.76
$IMU,26835.120,0.549,-6.774,-6.103,0.30224,0.94189,0.18554,27.76
$IMU,26835.123,-6.347,-6.591,1.037,0.28271,0.95654,0.18505,28.15
$IMU,26835.125,-2.502,-28.259,-22.644,0.27783,0.95410,0.18017,28.15
$IMU,26835.128,0.244,-49.560,-42.968,0.29150,0.95312,0.16796,28.15
$IMU,26835.130,-5.065,-57.617,-43.945,0.29736,0.94433,0.14501,28.15
$IMU,26835.132,-9.948,-65.612,-43.273,0.30810,0.93798,0.13427,28.15
$IMU,26835.135,-14.892,-73.669,-41.320,0.33886,0.94677,0.11669,28.15
$IMU,26835.137,-20.446,-82.031,-40.039,0.35986,0.96435,0.10644,28.15
$IMU,26835.139,-26.489,-89.843,-38.574,0.35888,0.99218,0.10644,28.15
$IMU,26835.142,-33.203,-97.351,-37.963,0.33398,1.01269,0.11083,28.17
$IMU,26835.144,-41.931,-103.637,-37.597,0.28173,1.00732,0.13232,28.17
$IMU,26835.146,-57.617,-106.201,-32.958,0.16162,1.00146,0.14843,28.17
$IMU,26835.149,-65.673,-110.168,-39.672,0.21240,0.95263,0.07568,28.17
$IMU,26835.151,-66.101,-113.098,-44.738,0.21435,0.94970,0.09863,28.17
$IMU,26835.153,-66.040,-114.074,-48.278,0.23486,0.94873,0.09472,28.17
$IMU,26835.156,-65.368,-113.952,-50.292,0.24755,0.92724,0.06152,28.17
$IMU,26835.158,-65.063,-113.525,-53.405,0.23193,0.90917,0.08593,28.17
$IMU,26835.160,-66.223,-110.107,-58.898,0.22802,0.89941,0.08447,28.21
$IMU,26835.163,-68.237,-106.384,-64.270,0.24267,0.89208,0.09228,28.21
$IMU,26835.165,-68.176,-100.830,-69.030,0.25488,0.87890,0.07031,28.21
$IMU,26835.167,-65.612,-93.200,-72.265,0.25585,0.88769,0.08886,28.21
$IMU,26835.170,-64.147,-83.068,-75.134,0.22656,0.88085,0.07031,28.21
$IMU,26835.172,-62.133,-74.279,-78.491,0.22607,0.85205,0.04541,28.21
$IMU,26835.174,-57.495,-66.833,-80.932,0.23925,0.85693,0.05224,28.21
$IMU,26835.177,-51.757,-59.509,-82.397,0.27050,0.85302,0.02636,28.21
$IMU,26835.179,-43.701,-54.138,-83.190,0.31591,0.83886,0.00146,28.20
$IMU,26835.181,-32.348,-50.903,-83.312,0.36035,0.83251,0.00048,28.20
$IMU,26835.184,-21.545,-49.682,-82.580,0.37939,0.83544,0.00195,28.20
$IMU,26835.186,-13.061,-50.537,-82.031,0.37548,0.85302,0.02392,28.20
$IMU,26835.188,-4.150,-50.170,-82.092,0.37841,0.89404,0.04931,28.20
$IMU,26835.191,5.859,-45.532,-81.726,0.36621,0.91601,0.05371,28.20
$IMU,26835.193,15.319,-39.123,-81.237,0.31933,0.96630,0.08007,28.20
$IMU,26835.196,20.751,-34.729,-81.298,0.28613,0.98339,0.11279,28.20
$IMU,26835.198,24.841,-28.625,-81.726,0.27099,0.98779,0.13916,28.21
$IMU,26835.200,26.428,-23.071,-82.153,0.24755,0.99609,0.15771,28.21
$IMU,26835.203,28.503,-16.845,-82.519,0.27490,1.01269,0.12890,28.21
$IMU,26835.205,32.287,-12.451,-80.871,0.28027,1.02685,0.12500,28.21
$IMU,26835.207,37.597,-10.559,-77.026,0.28125,1.01855,0.12158,28.21
$IMU,26835.210,42.175,-11.108,-72.814,0.23437,1.03906,0.15771,28.21
$IMU,26835.212,43.457,-13.000,-71.533,0.18457,1.02636,0.17431,28.21
$IMU,26835.214,44.250,-14.648,-71.777,0.16162,1.01660,0.20996,28.21
$IMU,26835.217,43.090,-15.625,-71.594,0.16162,1.03466,0.20312,28.22
$IMU,26835.219,41.381,-16.540,-72.631,0.13281,1.04150,0.19580,28.22
$IMU,26835.221,40.283,-17.028,-73.730,0.13134,1.05712,0.16601,28.22
$IMU,26835.224,38.085,-21.179,-72.387,0.15380,1.07617,0.17431,28.22
$IMU,26835.226,35.217,-26.428,-72.509,0.26464,1.05957,0.17089,28.22
$IMU,26835.228,33.508,-29.479,-71.899,0.33300,1.04687,0.18750,28.22
$IMU,26835.231,30.639,-31.799,-70.495,0.33447,1.04150,0.19628,28.22
$IMU,26835.233,25.695,-32.714,-70.800,0.33544,1.03076,0.20361,28.22
$IMU,26835.235,14.221,-34.423,-76.232,0.29541,0.97363,0.22753,28.22
$IMU,26835.238,2.746,-30.883,-85.144,0.33251,0.99414,0.17138,28.22
$IMU,26835.240,-1.831,-28.198,-84.960,0.29003,0.96630,0.17333,28.22
$IMU,26835.242,-5.126,-28.869,-84.350,0.23730,0.89599,0.13085,28.22
$IMU,26835.245,-7.446,-29.357,-86.547,0.16992,0.88671,0.15087,28.22
$IMU,26835.247,-10.009,-32.348,-89.843,0.19775,0.92187,0.10644,28.22
$IMU,26835.249,-9.216,-33.142,-89.172,0.20458,0.95312,0.14160,28.22
$IMU,26835.252,-11.352,-36.560,-88.134,0.21289,0.97363,0.15429,28.22
$IMU,26835.254,-13.549,-37.597,-86.914,0.20605,1.00683,0.15380,28.22
$IMU,26835.257,-15.930,-40.222,-84.838,0.17822,1.01904,0.16796,28.22
$IMU,26835.259,-19.958,-45.166,-83.618,0.19628,1.02832,0.15673,28.22
$IMU,26835.261,-21.972,-46.752,-82.763,0.21679,1.02685,0.18310,28.22
$IMU,26835.264,-24.047,-47.058,-83.129,0.21972,1.00195,0.18994,28.22
$IMU,26835.266,-25.817,-46.386,-84.045,0.20117,1.00781,0.19726,28.22
$IMU,26835.268,-27.709,-47.119,-85.632,0.19140,1.00341,0.19287,28.22
$IMU,26835.271,-28.503,-45.227,-87.097,0.17138,0.99218,0.16650,28.22
$IMU,26835.273,-26.855,-43.579,-86.914,0.11865,0.98876,0.11279,28.25
$IMU,26835.275,-21.850,-41.015,-86.486,0.09277,0.97949,0.00048,28.25
$IMU,26835.278,-14.160,-39.062,-85.998,0.03662,1.03662,0.01806,28.25
$IMU,26835.280,-7.934,-40.527,-85.205,0.01171,1.06445,0.02490,28.25
$IMU,26835.282,0.122,-41.564,-83.801,-0.00683,1.08349,0.00927,28.25
$IMU,26835.285,7.751,-41.442,-83.251,-0.00634,1.12060,-0.00195,28.25
$IMU,26835.287,14.404,-40.161,-83.129,-0.03515,1.12695,0.01123,28.25
$IMU,26835.289,18.859,-40.161,-83.190,-0.04980,1.14208,0.02880,28.25
$IMU,26835.292,23.193,-38.757,-82.885,-0.06738,1.13183,0.03613,28.22
$IMU,26835.294,26.672,-37.170,-82.275,-0.06250,1.13330,0.04101,28.22
$IMU,26835.296,30.578,-32.165,-81.848,-0.08496,1.12451,0.08203,28.22
$IMU,26835.299,32.836,-29.052,-81.115,-0.07031,1.09082,0.10400,28.22
$IMU,26835.301,34.301,-27.526,-79.895,-0.02783,1.07958,0.14355,28.22
$IMU,26835.303,35.217,-22.521,-78.186,0.05761,1.03222,0.14892,28.22
$IMU,26835.306,35.705,-16.906,-75.073,0.03515,1.03857,0.22802,28.22
$IMU,26835.308,33.081,-14.343,-71.044,0.07324,1.03466,0.25439,28.22
$IMU,26835.310,29.418,-10.559,-67.504,0.09033,1.04687,0.28417,28.18
$IMU,26835.313,25.817,-7.446,-64.086,0.11083,1.05761,0.30419,28.18
$IMU,26835.315,23.071,-3.723,-61.462,0.11718,1.07666,0.31103,28.18
$IMU,26835.318,21.179,-2.380,-59.692,0.11328,1.10009,0.31152,28.18
$IMU,26835.320,19.775,-4.394,-58.105,0.13867,1.10253,0.29785,28.18
$IMU,26835.322,18.920,-6.469,-56.030,0.14990,1.10986,0.32275,28.18
$IMU,26835.325,18.371,-10.253,-53.161,0.14013,1.14453,0.35351,28.18
$IMU,26835.327,18.249,-14.038,-48.461,0.15087,1.16601,0.35693,28.18
$IMU,26835.329,18.615,-18.188,-42.480,0.17871,1.16113,0.32958,28.25
$IMU,26835.332,20.690,-22.033,-35.705,0.16845,1.19873,0.29833,28.25
$IMU,26835.334,23.010,-27.221,-28.320,0.14013,1.23144,0.28466,28.25
$IMU,26835.336,26.000,-32.897,-21.545,0.14843,1.25830,0.23730,28.25
$IMU,26835.339,29.479,-38.818,-14.282,0.14648,1.29199,0.20898,28.25
$IMU,26835.341,32.165,-44.067,-6.713,0.11230,1.27343,0.21728,28.25
$IMU,26835.343,32.287,-47.729,-3.662,0.05175,1.23193,0.22216,28.25
$BARO,26835.346,86870.45,28.51
$IMU,26835.346,29.418,-49.987,-6.652,0.02832,1.23291,0.18505,28.25
$IMU,26835.348,24.963,-50.964,-11.901,0.04199,1.22802,0.12548,28.27
$IMU,26835.350,19.714,-50.964,-16.662,0.04980,1.23681,0.08398,28.27
$MAG,26835.352,-0.363,-0.466,-0.621,-12.0
$IMU,26835.353,13.488,-50.659,-21.179,0.05322,1.24414,0.05273,28.27
$IMU,26835.355,6.103,-50.781,-25.634,0.06298,1.23144,0.03466,28.27
$IMU,26835.357,-0.366,-51.208,-29.418,0.07519,1.20849,0.01220,28.27
$IMU,26835.360,-5.187,-52.978,-31.799,0.08691,1.21972,-0.01855,28.27
$MAG,26835.362,-0.402,-0.510,-0.673,27.2
$IMU,26835.362,-8.728,-55.541,-33.081,0.08837,1.17480,-0.01611,28.27
$IMU,26835.364,-8.728,-59.020,-33.020,0.06347,1.12011,-0.03125,28.27
$IMU,26835.367,-5.004,-63.842,-31.616,0.10205,1.09667,-0.06152,28.25
$IMU,26835.369,4.821,-72.021,-26.062,0.22998,0.94580,-0.26269,28.25
$IMU,26835.371,29.602,-89.538,-13.610,0.23925,0.85400,-0.35839,28.25
$MAG,26835.372,-0.408,-0.507,-0.673,27.2
$IMU,26835.374,62.438,-109.436,-1.403,0.18945,0.84912,-0.29296,28.25
$IMU,26835.376,91.491,-123.962,5.432,0.03125,0.92822,-0.06542,28.25
$IMU,26835.379,106.201,-127.868,4.333,-0.07958,1.00830,0.09814,28.25
$IMU,26835.381,106.384,-122.802,0.061,0.00488,1.10644,0.14550,28.25
$MAG,26835.382,-0.415,-0.511,-0.658,27.2
$IMU,26835.383,98.754,-112.731,-1.464,0.00878,1.06054,0.08496,28.25
$IMU,26835.386,95.031,-106.018,3.112,0.04736,0.98144,-0.02783,28.28
$IMU,26835.388,98.754,-101.928,10.375,0.03906,0.94189,-0.06103,28.28
$IMU,26835.390,108.398,-99.670,17.211,0.01269,0.89355,-0.06640,28.28
$HUM,26835.391,34.0,28.9
$MAG,26835.392,-0.415,-0.526,-0.652,27.3
$IMU,26835.393,123.779,-102.111,26.306,-0.04638,0.76416,-0.12402,28.28
$IMU,26835.395,140.869,-107.055,37.048,-0.03125,0.85400,-0.01757,28.28
$IMU,26835.397,156.555,-103.393,39.428,0.02587,0.90136,0.01416,28.28
$IMU,26835.400,169.982,-97.717,39.306,0.05322,0.88769,-0.00146,28.28
$MAG,26835.402,-0.424,-0.520,-0.640,27.2
$IMU,26835.402,180.664,-91.796,39.489,0.06005,0.94726,0.01855,28.28
$IMU,26835.404,185.546,-85.510,39.672,0.03857,0.98535,0.06250,28.30
$IMU,26835.407,183.959,-78.247,40.527,0.02587,0.94580,0.13281,28.30
$IMU,26835.409,167.114,-61.340,33.569,0.13818,1.98583,0.58203,28.30
$IMU,26835.411,120.666,-33.264,5.371,0.15429,2.00488,0.24804,28.30
$MAG,26835.413,-0.430,-0.517,-0.624,27.2
$IMU,26835.414,87.707,-22.338,-13.488,-0.04248,1.28173,-0.07812,28.30
$IMU,26835.416,75.195,-22.583,-13.916,-0.04687,1.05078,-0.07910,28.30
$IMU,26835.418,70.983,-18.859,-13.061,0.06054,1.27880,0.01660,28.30
$IMU,26835.421,68.054,-12.878,-15.563,0.06689,1.16552,-0.08398,28.30
$MAG,26835.423,-0.427,-0.528,-0.613,27.2
$IMU,26835.423,68.969,-10.620,-18.066,0.04248,1.00439,-0.06250,28.29
$IMU,26835.425,72.509,-10.009,-16.235,0.03808,0.94775,-0.09033,28.29
$IMU,26835.428,76.660,-9.338,-15.319,0.08154,1.00976,-0.04687,28.29
$IMU,26835.430,77.087,-7.568,-19.409,0.14794,1.17773,-0.04589,28.29
$IMU,26835.432,73.913,-7.629,-25.878,0.17822,1.16845,-0.06982,28.29
$MAG,26835.433,-0.421,-0.538,-0.618,27.2
$IMU,26835.435,69.641,-9.521,-29.541,0.16650,1.09277,-0.07910,28.29
$IMU,26835.437,65.551,-13.122,-29.357,0.22412,1.13330,-0.04638,28.29
$IMU,26835.440,59.814,-15.136,-27.099,0.17529,1.15087,-0.02929,28.29
$IMU,26835.442,56.762,-20.019,-26.367,0.07080,1.02050,-0.08154,28.21
$MAG,26835.443,-0.438,-0.540,-0.606,27.3
$IMU,26835.444,59.692,-26.794,-23.803,0.08398,0.88183,-0.08349,28.21
$BARO,26835.447,86861.43,28.50
$IMU,26835.447,61.462,-28.869,-18.920,0.18994,0.96875,0.01171,28.21
$IMU,26835.449,59.326,-28.076,-15.563,0.12841,1.03857,-0.04443,28.21
$IMU,26835.451,57.922,-29.235,-15.441,0.10839,1.03466,0.00244,28.21
$MAG,26835.453,-0.430,-0.543,-0.600,27.5
$IMU,26835.454,55.236,-28.686,-15.502,0.09619,1.02978,-0.06738,28.21
$IMU,26835.456,56.152,-30.334,-16.967,0.10009,1.04492,-0.09570,28.21
$IMU,26835.458,56.457,-31.188,-16.784,0.14746,1.05371,-0.03125,28.21
$IMU,26835.461,53.710,-29.479,-14.404,0.16455,1.01904,-0.07128,28.27
$MAG,26835.463,-0.420,-0.532,-0.588,27.2
$IMU,26835.463,49.377,-27.893,-9.155,0.16650,1.02490,-0.02880,28.27
$IMU,26835.465,42.175,-26.123,-3.051,0.12841,1.06884,-0.06933,28.27
$IMU,26835.468,34.667,-27.465,0.915,0.07763,1.12890,-0.05712,28.27
$IMU,26835.470,26.245,-28.747,3.234,0.04296,1.11083,-0.07080,28.27
$IMU,26835.472,20.812,-31.921,4.577,0.00878,1.07470,-0.12353,28.27
$MAG,26835.473,-0.421,-0.541,-0.586,27.3
$IMU,26835.475,19.531,-35.278,4.943,0.04882,1.06689,-0.08447,28.27
$IMU,26835.477,18.249,-36.437,5.676,0.09423,1.06445,-0.08544,28.27
$IMU,26835.479,17.578,-38.208,7.141,0.09619,1.06542,-0.08496,28.27
$IMU,26835.482,16.662,-38.452,8.666,0.14404,1.06738,-0.03076,28.27
$MAG,26835.483,-0.427,-0.549,-0.586,27.2
$IMU,26835.484,14.160,-35.400,13.183,0.18505,1.09570,-0.02099,28.27
$IMU,26835.486,13.366,-31.066,17.639,0.06201,1.14599,-0.06201,28.27
$IMU,26835.489,13.366,-31.311,17.822,0.01904,1.09472,-0.05322,28.27
$IMU,26835.491,11.291,-33.691,17.028,0.04541,1.05517,-0.05615,28.27
$MAG,26835.493,-0.426,-0.541,-0.589,27.3
$IMU,26835.493,9.704,-34.362,15.808,0.02880,1.02832,-0.07324,28.27
$IMU,26835.496,9.155,-35.339,12.756,0.03125,1.00683,-0.08056,28.27
$IMU,26835.498,8.422,-34.606,10.437,0.08544,1.00000,-0.08154,28.28
$IMU,26835.501,7.995,-30.822,9.277,0.08691,0.98535,-0.08105,28.28
$MAG,26835.503,-0.424,-0.540,-0.582,27.3
$IMU,26835.503,7.263,-26.733,8.911,0.07373,0.98193,-0.10449,28.28
$IMU,26835.505,5.371,-23.498,7.568,0.08398,0.97412,-0.12695,28.28
$IMU,26835.508,4.150,-20.202,7.751,0.10058,0.98876,-0.13525,28.28
$IMU,26835.510,0.915,-16.540,7.324,0.00244,1.04736,-0.10595,28.28
$IMU,26835.512,-3.295,-14.282,2.563,-0.02587,1.01318,-0.11816,28.28
$MAG,26835.513,-0.423,-0.543,-0.571,27.2
$IMU,26835.515,-7.263,-11.962,-0.671,0.06835,1.00195,-0.09960,28.28
$IMU,26835.517,-11.840,-8.056,-2.258,0.01025,1.02001,-0.06738,28.28
$IMU,26835.519,-16.357,-5.004,-6.408,0.07128,0.98779,-0.08056,28.28
$IMU,26835.522,-18.127,-1.159,-8.361,0.05078,0.98730,-0.06298,28.28
$MAG,26835.523,-0.432,-0.541,-0.576,27.2
$IMU,26835.524,-21.423,2.380,-12.390,0.01611,1.00781,-0.06103,28.28
$IMU,26835.526,-23.986,4.028,-16.540,0.07324,0.96142,-0.12646,28.28
$IMU,26835.529,-24.597,3.540,-18.371,0.07031,0.96728,-0.12500,28.28
$IMU,26835.531,-24.475,2.807,-21.057,0.04345,0.94873,-0.14746,28.28
$IMU,26835.533,-22.338,1.953,-23.010,0.04638,0.95947,-0.12646,28.28
$MAG,26835.534,-0.433,-0.535,-0.588,27.3
$IMU,26835.536,-21.606,0.488,-25.573,0.04052,0.95312,-0.11328,28.26
$IMU,26835.538,-22.705,0.671,-28.259,0.03320,0.94726,-0.10058,28.26
$IMU,26835.540,-24.475,2.075,-30.639,0.00537,0.93017,-0.11230,28.26
$IMU,26835.543,-24.658,3.723,-28.198,0.13378,0.90234,-0.16699,28.26
$MAG,26835.544,-0.426,-0.547,-0.591,27.2
$IMU,26835.545,-21.972,6.225,-13.671,0.11132,0.96484,-0.10498,28.26
$IMU,26835.547,-23.132,8.728,-3.112,0.03173,1.01904,-0.09033,28.26
$BARO,26835.549,86866.35,28.51
$IMU,26835.550,-24.658,11.169,-1.770,-0.05126,0.99462,-0.11132,28.26
$IMU,26835.552,-26.733,11.962,-3.967,0.00781,0.96240,-0.12744,28.26
$MAG,26835.554,-0.424,-0.529,-0.582,27.3
$IMU,26835.554,-28.320,12.939,-3.967,0.05126,0.99316,-0.14013,28.29
$IMU,26835.557,-29.602,14.770,-2.624,0.01171,1.00244,-0.09521,28.29
$IMU,26835.559,-31.616,17.883,-1.770,0.09326,0.95019,-0.10058,28.29
$IMU,26835.561,-31.250,19.958,2.502,0.05712,0.98144,-0.08496,28.29
$MAG,26835.564,-0.429,-0.540,-0.598,27.5
$IMU,26835.564,-30.273,19.531,2.075,0.13134,1.01562,-0.12939,28.29
$IMU,26835.566,-28.198,15.625,1.403,0.11425,1.05175,-0.07958,28.29
$IMU,26835.569,-27.587,13.183,2.502,0.12988,1.02246,-0.11767,28.29
$IMU,26835.571,-25.207,10.009,4.577,0.11425,1.04443,-0.10449,28.29
$IMU,26835.573,-23.986,6.774,3.601,0.08007,1.07910,-0.10205,28.25
$MAG,26835.574,-0.427,-0.541,-0.597,27.5
$IMU,26835.576,-23.742,3.356,0.915,0.05517,1.03710,-0.11328,28.25
$IMU,26835.578,-23.315,0.122,0.610,0.07373,1.03125,-0.08837,28.25
$IMU,26835.580,-22.644,-1.831,2.624,0.18896,1.03173,-0.07958,28.25
$IMU,26835.583,-21.240,-2.807,5.004,0.13623,1.06542,-0.07421,28.25
$MAG,26835.584,-0.426,-0.541,-0.601,27.3
$IMU,26835.585,-20.202,-5.432,2.441,0.10546,1.05078,-0.05761,28.25
$IMU,26835.587,-18.798,-7.446,0.671,0.14160,1.04345,-0.06201,28.25
$IMU,26835.590,-17.211,-8.300,0.915,0.13037,1.04589,-0.07080,28.25
$IMU,26835.592,-15.258,-8.911,2.502,0.16113,1.01220,-0.06201,28.29
$MAG,26835.594,-0.427,-0.540,-0.597,27.5
$IMU,26835.594,-13.122,-8.850,3.662,0.10546,1.01660,-0.04394,28.29
$IMU,26835.597,-12.634,-9.704,1.159,0.03906,1.01416,-0.04638,28.29
$IMU,26835.599,-12.390,-11.047,-0.915,0.09228,0.99804,-0.06250,28.29
$IMU,26835.601,-11.474,-10.681,0.915,0.04931,1.03271,-0.05908,28.29
$MAG,26835.604,-0.433,-0.532,-0.603,27.5
$IMU,26835.604,-11.718,-10.681,0.183,0.00830,1.03320,-0.05615,28.29
$IMU,26835.606,-11.840,-10.253,0.244,0.07031,1.00048,-0.04589,28.29
$IMU,26835.608,-11.779,-8.605,0.976,0.07177,1.02587,-0.06005,28.29
$IMU,26835.611,-11.657,-7.507,0.549,0.09667,1.02441,-0.07519,28.29
$IMU,26835.613,-10.803,-7.141,0.183,0.07470,1.03125,-0.06542,28.29
$MAG,26835.614,-0.427,-0.537,-0.597,27.3
$IMU,26835.615,-9.765,-6.958,-0.610,0.08544,1.02929,-0.06347,28.29
$IMU,26835.618,-8.544,-6.103,-0.366,0.13378,1.02148,-0.06396,28.29
$IMU,26835.620,-7.324,-4.699,1.098,0.12109,1.03027,-0.06054,28.29
$IMU,26835.622,-6.164,-4.272,1.586,0.12011,1.01513,-0.06250,28.29
$MAG,26835.624,-0.426,-0.537,-0.606,27.3
$IMU,26835.625,-4.943,-3.662,2.136,0.07861,1.02978,-0.05761,28.29
$IMU,26835.627,-4.150,-4.516,-0.244,0.05029,1.03564,-0.06054,28.29
$IMU,26835.630,-3.601,-6.042,-2.014,0.05371,1.01660,-0.05908,28.28
$IMU,26835.632,-3.112,-5.859,-0.915,0.09326,1.00341,-0.05175,28.28
$MAG,26835.634,-0.427,-0.532,-0.604,27.3
$IMU,26835.634,-2.014,-4.272,0.671,0.10986,1.00878,-0.03613,28.28
$IMU,26835.637,-0.854,-2.319,0.366,0.11767,1.02539,-0.03955,28.28
$IMU,26835.639,-0.244,-0.488,-0.671,0.09619,1.07226,-0.07470,28.28
$IMU,26835.641,-1.098,-0.061,-1.342,0.06933,1.10742,-0.09375,28.28
$MAG,26835.644,-0.438,-0.534,-0.601,27.3
$IMU,26835.644,-2.929,-0.061,-1.342,0.05761,1.09619,-0.08544,28.28
$IMU,26835.646,-4.516,-0.061,-1.098,0.04833,1.07080,-0.07128,28.28
$IMU,26835.648,-5.859,-0.122,-0.915,0.04003,1.05224,-0.06933,28.30
$BARO,26835.650,86867.82,28.51
$IMU,26835.651,-6.774,-0.244,-0.610,0.03076,1.04833,-0.07763,28.30
$IMU,26835.653,-7.995,-0.061,-0.183,0.03369,1.04882,-0.07812,28.30
$MAG,26835.655,-0.421,-0.535,-0.606,27.3
$IMU,26835.655,-9.033,-0.061,0.061,0.02929,1.03955,-0.07714,28.30
$IMU,26835.658,-9.948,0.061,0.671,0.02685,1.02880,-0.07080,28.30
$IMU,26835.660,-10.864,0.061,1.159,0.04052,1.01953,-0.07470,28.30
$IMU,26835.662,-12.084,0.122,1.525,0.03662,0.99365,-0.06787,28.30
$MAG,26835.665,-0.421,-0.534,-0.606,27.2
$IMU,26835.665,-13.000,0.122,1.892,0.04003,0.97314,-0.06201,28.30
$IMU,26835.667,-13.610,0.061,2.136,0.04736,0.95849,-0.05126,28.28
$IMU,26835.669,-13.610,-0.061,2.197,0.04150,0.94091,-0.04150,28.28
$IMU,26835.672,-13.183,0.061,2.380,0.04296,0.93945,-0.03906,28.28
$IMU,26835.674,-12.268,0.061,2.319,0.04833,0.92724,-0.03271,28.28
$MAG,26835.675,-0.433,-0.531,-0.610,27.3
$IMU,26835.676,-11.047,-0.061,2.136,0.05566,0.93066,-0.03417,28.28
$IMU,26835.679,-10.070,-0.061,1.647,0.05957,0.92285,-0.03808,28.28
$IMU,26835.681,-9.216,-0.061,0.976,0.05468,0.91259,-0.04150,28.28
$IMU,26835.683,-8.605,0.061,0.671,0.04492,0.90283,-0.04541,28.28
$MAG,26835.685,-0.435,-0.535,-0.607,27.2
$IMU,26835.686,-7.995,0.122,0.610,0.03759,0.90869,-0.05566,28.27
$IMU,26835.688,-7.873,0.061,0.976,0.02587,0.93310,-0.06982,28.27
$IMU,26835.691,-8.239,0.183,1.953,0.01513,0.94628,-0.07373,28.27
$IMU,26835.693,-8.666,0.305,3.356,0.01464,0.96386,-0.07714,28.27
$MAG,26835.695,-0.429,-0.529,-0.609,27.3
$IMU,26835.695,-9.094,0.488,4.211,0.01953,0.97802,-0.07128,28.27
$IMU,26835.698,-9.094,0.610,4.699,0.02539,0.99218,-0.06787,28.27
$IMU,26835.700,-8.728,0.793,4.699,0.02734,1.00634,-0.06298,28.27
$IMU,26835.702,-8.178,0.976,4.699,0.03271,1.01806,-0.06201,28.27
$IMU,26835.705,-7.751,1.892,4.455,0.01416,1.04833,-0.05419,28.26
$MAG,26835.705,-0.436,-0.535,-0.601,27.5
$IMU,26835.707,-7.507,6.103,1.892,-0.06933,1.07617,-0.00927,28.26
$IMU,26835.709,-8.178,14.526,-2.990,-0.08447,1.05908,0.01220,28.26
$IMU,26835.712,-9.399,20.568,-2.990,-0.04003,1.04736,-0.02001,28.26
$IMU,26835.714,-11.108,22.216,0.305,-0.02880,1.07861,-0.04248,28.26
$MAG,26835.715,-0.426,-0.522,-0.606,27.2
$IMU,26835.716,-13.122,21.728,1.098,0.00292,1.06542,-0.07226,28.26
$IMU,26835.719,-14.221,19.958,1.464,0.05175,1.04345,-0.06787,28.26
$IMU,26835.721,-15.014,17.700,1.770,0.06201,1.05371,-0.06591,28.26
$IMU,26835.723,-15.319,15.014,1.708,0.11816,1.03466,-0.09179,28.28
$MAG,26835.725,-0.429,-0.538,-0.615,27.3
$IMU,26835.726,-14.526,10.986,3.601,0.10595,1.05712,-0.05664,28.28
$IMU,26835.728,-15.991,8.544,1.159,0.06005,1.07128,-0.01953,28.28
$IMU,26835.730,-17.761,8.789,-2.197,0.05810,1.04833,-0.02001,28.28
$IMU,26835.733,-19.226,9.521,-2.502,0.06591,1.03515,-0.03417,28.28
$MAG,26835.735,-0.424,-0.532,-0.612,27.3
$IMU,26835.735,-19.287,8.972,-0.244,0.10351,1.01953,-0.05761,28.28
$IMU,26835.737,-18.554,7.141,2.136,0.07861,1.02880,-0.04345,28.28
$IMU,26835.740,-18.798,6.896,-0.305,0.04736,1.03417,-0.02294,28.28
$IMU,26835.742,-18.371,7.812,-2.258,0.09814,1.00244,-0.04736,28.25
$IMU,26835.744,-16.845,7.568,-0.549,0.08837,1.01318,-0.04541,28.25
$MAG,26835.745,-0.439,-0.522,-0.618,27.6
$IMU,26835.747,-16.235,6.713,-0.122,0.07226,1.00781,-0.03808,28.25
$IMU,26835.749,-15.869,6.408,-0.610,0.05615,0.99707,-0.02978,28.25
$BARO,26835.752,86868.38,28.51
$IMU,26835.752,-15.380,6.652,-1.770,0.04833,1.00146,-0.02539,28.25
$IMU,26835.754,-14.587,6.652,-1.892,0.07763,0.99511,-0.03369,28.25
$MAG,26835.755,-0.430,-0.534,-0.618,27.6
$IMU,26835.756,-13.488,5.493,-0.366,0.08251,0.98974,-0.03710,28.25
$IMU,26835.759,-12.451,4.028,0.305,0.08789,0.98046,-0.04052,28.25
$IMU,26835.761,-11.291,2.502,0.122,0.09765,0.97949,-0.03515,28.27
$IMU,26835.763,-10.131,1.647,-0.183,0.10546,0.99072,-0.03320,28.27
$MAG,26835.766,-0.414,-0.531,-0.610,27.3
$IMU,26835.766,-8.544,0.427,-0.610,0.10400,0.99462,-0.02294,28.27
$IMU,26835.768,-6.835,-0.061,-1.586,0.08642,1.00390,-0.00390,28.27
$IMU,26835.770,-4.882,-0.122,-2.990,0.07470,0.99316,0.00390,28.27
$IMU,26835.773,-2.929,-0.183,-3.540,0.05322,0.96630,0.01367,28.27
$IMU,26835.775,-1.342,-0.183,-2.990,0.03125,0.95654,0.00781,28.27
$MAG,26835.776,-0.421,-0.534,-0.607,27.6
$IMU,26835.777,0.183,-0.122,-1.647,0.02929,0.95605,0.00000,28.27
$IMU,26835.780,1.342,0.000,-0.366,0.03759,0.97363,-0.00634,28.32
$IMU,26835.782,2.197,-0.183,0.244,0.03955,1.02832,-0.02246,28.32
$IMU,26835.784,2.685,-0.183,0.549,0.04687,1.04492,-0.02246,28.32
$MAG,26835.786,-0.418,-0.525,-0.624,27.3
$IMU,26835.787,3.051,-0.061,0.366,0.05371,1.03564,-0.02392,28.32
$IMU,26835.789,3.479,-0.183,-0.183,0.05322,1.02441,-0.02099,28.32
$IMU,26835.791,3.967,0.000,-0.549,0.04931,1.02685,-0.01660,28.32
$IMU,26835.794,4.516,0.122,-0.732,0.04638,1.03076,-0.01904,28.32
$MAG,26835.796,-0.420,-0.531,-0.622,27.3
$IMU,26835.796,5.065,-0.122,-0.732,0.04980,1.03271,-0.02392,28.32
$IMU,26835.798,5.371,-0.183,-0.793,0.05664,1.03515,-0.02490,28.28
$IMU,26835.801,5.676,-0.061,-1.281,0.06005,1.03808,-0.03027,28.28
$IMU,26835.803,5.798,-0.183,-1.647,0.05224,1.02832,-0.03466,28.28
$IMU,26835.805,5.859,-0.122,-1.586,0.04394,1.01757,-0.03564,28.28
$MAG,26835.806,-0.426,-0.526,-0.619,27.5
$IMU,26835.808,5.859,-0.244,-1.281,0.04101,1.00390,-0.03906,28.28
$IMU,26835.810,5.859,-0.244,-1.159,0.03955,1.00195,-0.03759,28.28
$IMU,26835.813,5.798,-0.305,-1.220,0.04443,1.00000,-0.03710,28.28
$IMU,26835.815,6.042,-0.305,-1.464,0.05175,1.00488,-0.03613,28.28
$MAG,26835.816,-0.424,-0.526,-0.618,27.5
$IMU,26835.817,6.164,-0.061,-1.770,0.05273,1.00927,-0.03417,28.27
$IMU,26835.820,6.591,-0.183,-1.953,0.04833,1.01269,-0.03710,28.27
$IMU,26835.822,6.896,-0.183,-2.075,0.04150,1.01123,-0.03808,28.27
$IMU,26835.824,6.835,-0.244,-1.892,0.04003,1.01123,-0.03759,28.27
$MAG,26835.826,-0.427,-0.529,-0.619,27.5
$IMU,26835.827,6.652,-0.122,-1.708,0.04150,1.00927,-0.04248,28.27
$IMU,26835.829,6.591,-0.122,-1.586,0.03906,1.00683,-0.04638,28.27
$IMU,26835.831,6.225,-0.122,-1.464,0.04443,1.00341,-0.04833,28.27
$IMU,26835.834,5.859,-0.061,-1.464,0.04345,1.00244,-0.05126,28.27
$MAG,26835.836,-0.424,-0.526,-0.613,27.5
$IMU,26835.836,5.371,-0.061,-1.403,0.04150,1.00537,-0.05517,28.30
$IMU,26835.838,4.821,-0.183,-1.220,0.04199,1.00244,-0.05273,28.30
$IMU,26835.841,4.028,-0.061,-1.037,0.04443,0.99902,-0.05566,28.30
$IMU,26835.843,3.234,-0.061,-0.854,0.04541,0.99609,-0.05615,28.30
$IMU,26835.845,2.319,-0.244,-0.732,0.04736,0.99414,-0.05664,28.30
$MAG,26835.846,-0.427,-0.514,-0.615,27.3
$IMU,26835.848,1.220,-0.122,-0.671,0.04541,0.99707,-0.05859,28.30
$IMU,26835.850,0.000,0.000,-0.732,0.04736,0.99609,-0.06054,28.30
$IMU,26835.852,-1.159,-0.183,-0.549,0.04394,0.99609,-0.06054,28.30
$BARO,26835.853,86860.77,28.51
$IMU,26835.855,-2.502,-0.061,-0.305,0.04443,0.99658,-0.05859,28.27
$MAG,26835.856,-0.424,-0.529,-0.606,27.5
$IMU,26835.857,-3.784,-0.061,0.000,0.04443,0.99902,-0.05615,28.27
$IMU,26835.859,-5.187,-0.061,0.244,0.04443,1.00195,-0.05957,28.27
$IMU,26835.862,-6.530,-0.122,0.488,0.04345,1.00781,-0.05615,28.27
$IMU,26835.864,-7.995,0.000,0.671,0.04736,1.00585,-0.05859,28.27
$MAG,26835.866,-0.421,-0.535,-0.622,27.6
$IMU,26835.866,-9.338,-0.122,0.732,0.04492,1.00830,-0.05664,28.27
$IMU,26835.869,-10.681,-0.122,0.732,0.04541,1.00537,-0.05810,28.27
$IMU,26835.871,-12.084,0.000,0.854,0.04687,1.00781,-0.05517,28.27
$IMU,26835.874,-13.305,-0.122,0.915,0.05126,1.00634,-0.05761,28.30
$MAG,26835.876,-0.415,-0.534,-0.612,27.6
$IMU,26835.876,-14.648,-0.122,1.037,0.05078,1.01074,-0.05664,28.30
$IMU,26835.878,-15.930,-0.061,1.037,0.05322,1.01904,-0.05712,28.30
$IMU,26835.881,-17.272,0.000,0.976,0.05175,1.01757,-0.05810,28.30
$IMU,26835.883,-18.615,-0.183,0.793,0.04785,1.02148,-0.05664,28.30
$IMU,26835.885,-20.324,-0.122,0.854,0.05126,1.02099,-0.05566,28.30
$MAG,26835.887,-0.427,-0.520,-0.618,27.5
$IMU,26835.888,-21.911,0.122,0.976,0.05078,1.02099,-0.05468,28.30
$IMU,26835.890,-23.498,0.000,1.037,0.04833,1.02148,-0.05273,28.30
$IMU,26835.892,-25.329,-0.061,1.220,0.05224,1.02294,-0.04980,28.29
$IMU,26835.895,-27.221,-0.122,1.281,0.05175,1.02587,-0.04248,28.29
$MAG,26835.897,-0.427,-0.528,-0.627,27.5
$IMU,26835.897,-28.808,-0.061,1.220,0.05126,1.02294,-0.02978,28.29
$IMU,26835.899,-29.663,-0.183,1.098,0.05224,1.01660,-0.01708,28.29
$IMU,26835.902,-29.968,-0.244,1.037,0.05566,1.02197,0.00000,28.29
$IMU,26835.904,-29.174,-0.427,1.037,0.04687,1.01464,0.01806,28.29
$IMU,26835.906,-27.587,-0.244,1.159,0.04736,1.01171,0.03613,28.29
$MAG,26835.907,-0.424,-0.526,-0.618,27.3
$IMU,26835.909,-24.719,-0.366,1.281,0.04638,1.00781,0.05126,28.29
$IMU,26835.911,-20.874,-0.244,1.159,0.04785,1.00878,0.06054,28.30
$IMU,26835.913,-16.235,-0.244,0.976,0.04882,1.01269,0.06347,28.30
$IMU,26835.916,-11.169,-0.366,0.732,0.05224,1.01708,0.06298,28.30
$MAG,26835.917,-0.423,-0.529,-0.622,27.3
$IMU,26835.918,-5.920,-0.427,0.305,0.05126,1.01562,0.05859,28.30
$IMU,26835.920,-0.976,-0.366,-0.061,0.05029,1.01806,0.05371,28.30
$IMU,26835.923,3.540,-0.244,-0.549,0.04980,1.01806,0.04443,28.30
$IMU,26835.925,7.812,-0.244,-0.915,0.04687,1.02001,0.03857,28.30
$MAG,26835.927,-0.429,-0.529,-0.631,27.3
$IMU,26835.927,11.779,-0.244,-1.281,0.04638,1.02099,0.03320,28.30
$IMU,26835.930,15.075,-0.366,-1.403,0.04589,1.01708,0.02880,28.33
$IMU,26835.932,17.700,-0.366,-1.464,0.04638,1.01220,0.01904,28.33
$IMU,26835.934,19.775,-0.183,-1.586,0.04199,1.00927,0.01513,28.33
$MAG,26835.937,-0.424,-0.528,-0.621,27.5
$IMU,26835.937,21.545,-0.244,-1.464,0.04052,1.00292,0.00585,28.33
$IMU,26835.939,22.827,-0.305,-1.403,0.04394,0.99755,-0.00341,28.33
$IMU,26835.942,23.620,-0.427,-1.342,0.04003,0.99169,-0.01269,28.33
$IMU,26835.944,24.047,-0.427,-1.159,0.04345,0.99072,-0.01904,28.33
$IMU,26835.946,23.925,-0.488,-0.976,0.04687,0.99072,-0.02734,28.33
$MAG,26835.947,-0.438,-0.528,-0.615,27.5
$IMU,26835.949,23.742,-0.244,-0.976,0.04833,0.99365,-0.03613,28.36
$IMU,26835.951,23.559,-0.305,-1.037,0.05029,0.99560,-0.03710,28.36
$IMU,26835.953,22.949,-0.610,-1.281,0.05175,0.99707,-0.03808,28.36
$BARO,26835.955,86870.45,28.51
$IMU,26835.956,22.155,-0.488,-1.525,0.05371,1.00048,-0.04541,28.36
$MAG,26835.957,-0.430,-0.534,-0.616,27.5
$IMU,26835.958,21.118,-0.427,-1.770,0.05078,0.99755,-0.04443,28.36
$IMU,26835.960,20.080,-0.488,-1.831,0.04785,0.99462,-0.05126,28.36
$IMU,26835.963,19.042,-0.427,-1.708,0.04248,1.00195,-0.05273,28.36
$IMU,26835.965,18.005,-0.305,-1.342,0.04101,1.00439,-0.05566,28.36
$MAG,26835.967,-0.432,-0.531,-0.624,27.3
$IMU,26835.967,16.723,-0.549,-1.037,0.04394,1.01025,-0.05517,28.32
$IMU,26835.970,15.380,-0.488,-0.976,0.04736,1.01464,-0.05761,28.32
$IMU,26835.972,13.732,-0.366,-1.098,0.05175,1.01855,-0.05859,28.32
$IMU,26835.974,12.207,-0.244,-1.281,0.04980,1.02343,-0.05859,28.32
$MAG,26835.977,-0.417,-0.525,-0.616,27.5
$IMU,26835.977,10.864,-0.183,-1.342,0.04882,1.01953,-0.06103,28.32
$IMU,26835.979,9.460,-0.305,-1.342,0.04882,1.01904,-0.05761,28.32
$IMU,26835.981,8.117,-0.366,-1.159,0.04492,1.01416,-0.05615,28.32
$IMU,26835.984,6.652,-0.244,-0.976,0.04541,1.01513,-0.05908,28.32
$IMU,26835.986,5.249,-0.183,-0.854,0.04638,1.00976,-0.06054,28.30
$MAG,26835.987,-0.427,-0.534,-0.613,27.5
$IMU,26835.988,4.089,-0.183,-0.793,0.04833,1.01220,-0.06152,28.30
$IMU,26835.991,3.234,-0.183,-0.793,0.04785,1.01660,-0.05908,28.30
$IMU,26835.993,2.197,-0.427,-0.793,0.04541,1.01464,-0.06201,28.30
$IMU,26835.995,0.976,-0.305,-0.732,0.04638,1.00927,-0.05957,28.30
$MAG,26835.998,-0.426,-0.535,-0.625,27.5
$IMU,26835.998,-0.061,-0.244,-0.610,0.04541,1.00537,-0.05859,28.30
$IMU,26836.000,-1.037,-0.244,-0.366,0.04492,1.00390,-0.06054,28.30
$IMU,26836.003,-2.136,-0.305,-0.305,0.04541,1.00537,-0.05957,28.30
$IMU,26836.005,-3.234,-0.183,-0.305,0.04492,1.00341,-0.05664,28.28
$IMU,26836.007,-4.333,-0.183,-0.244,0.04785,1.00292,-0.05615,28.28
$MAG,26836.008,-0.426,-0.534,-0.624,27.3
$IMU,26836.010,-5.310,-0.061,-0.244,0.04736,1.00537,-0.05712,28.28
$IMU,26836.012,-5.981,-0.122,-0.244,0.04589,1.00976,-0.05322,28.28
$IMU,26836.014,-6.774,-0.183,-0.122,0.04296,1.01220,-0.05371,28.28
$IMU,26836.017,-7.629,-0.244,0.183,0.04150,1.01464,-0.04980,28.28
$MAG,26836.018,-0.424,-0.523,-0.618,27.5
$IMU,26836.019,-8.483,-0.061,0.427,0.04541,1.01464,-0.04785,28.28
$IMU,26836.021,-9.521,-0.122,0.488,0.04394,1.01074,-0.04882,28.28
$IMU,26836.024,-10.498,-0.305,0.610,0.03955,1.01171,-0.05175,28.30
$IMU,26836.026,-11.291,-0.183,0.671,0.04492,1.00976,-0.05273,28.30
$MAG,26836.028,-0.432,-0.529,-0.612,27.5
$IMU,26836.028,-12.084,-0.061,0.732,0.04150,1.01806,-0.05029,28.30
$IMU,26836.031,-12.512,-0.183,0.915,0.04589,1.01855,-0.05175,28.30
$IMU,26836.033,-13.000,0.061,1.098,0.04882,1.02490,-0.04736,28.30
$IMU,26836.035,-13.305,-0.244,1.098,0.05322,1.02685,-0.04638,28.30
$MAG,26836.038,-0.426,-0.538,-0.621,27.5
$IMU,26836.038,-13.854,-0.061,0.976,0.05419,1.02197,-0.04199,28.30
$IMU,26836.040,-14.221,0.000,0.854,0.05029,1.01708,-0.03662,28.30
$IMU,26836.042,-14.709,0.000,0.610,0.04736,1.01025,-0.03515,28.27
$IMU,26836.045,-15.014,0.000,0.610,0.04833,1.00537,-0.03759,28.27
$IMU,26836.047,-15.197,-0.122,0.793,0.04980,1.00537,-0.03222,28.27
$MAG,26836.048,-0.430,-0.534,-0.618,27.6
$IMU,26836.049,-15.258,-0.061,0.976,0.04931,1.00683,-0.03320,28.27
$IMU,26836.052,-15.380,0.122,0.915,0.05273,1.00390,-0.03125,28.27
$IMU,26836.054,-15.502,0.122,0.793,0.05517,1.00292,-0.03125,28.27
$BARO,26836.056,86858.97,28.51
$IMU,26836.056,-15.686,0.183,0.427,0.05761,1.00146,-0.03027,28.27
$MAG,26836.058,-0.427,-0.529,-0.610,27.6
$IMU,26836.059,-15.930,0.061,0.000,0.05322,1.00000,-0.02832,28.27
$IMU,26836.061,-16.296,0.122,-0.244,0.04687,0.99169,-0.03125,28.37
$IMU,26836.064,-16.723,0.000,-0.183,0.04541,0.99316,-0.02832,28.37
$IMU,26836.066,-17.272,0.000,0.122,0.04052,0.99951,-0.03076,28.37
$MAG,26836.068,-0.426,-0.523,-0.624,27.3
$IMU,26836.068,-18.005,0.183,0.366,0.04296,1.00634,-0.03076,28.37
$IMU,26836.071,-18.432,-0.122,0.549,0.04394,1.00732,-0.03271,28.37
$IMU,26836.073,-19.226,0.000,0.610,0.04736,1.01074,-0.03222,28.37
$IMU,26836.075,-20.019,-0.061,0.549,0.04980,1.01611,-0.03076,28.37
$MAG,26836.078,-0.420,-0.526,-0.622,27.5
$IMU,26836.078,-20.874,-0.061,0.427,0.04687,1.01367,-0.02978,28.37
$IMU,26836.080,-21.362,0.000,0.427,0.04101,1.01171,-0.03076,28.32
$IMU,26836.082,-21.850,-0.061,0.549,0.04345,1.01660,-0.02343,28.32
$IMU,26836.085,-22.338,0.000,0.854,0.04296,1.01757,-0.02343,28.32
$IMU,26836.087,-22.705,-0.061,1.098,0.04296,1.01611,-0.02636,28.32
$MAG,26836.088,-0.424,-0.529,-0.627,27.6
$IMU,26836.089,-22.705,0.000,1.098,0.04443,1.01855,-0.02294,28.32
$IMU,26836.092,-22.399,0.061,0.915,0.04589,1.01562,-0.02294,28.32
$IMU,26836.094,-21.667,0.122,0.610,0.04687,1.01611,-0.02050,28.32
$IMU,26836.096,-20.751,0.244,0.366,0.04345,1.01806,-0.01562,28.32
$MAG,26836.098,-0.423,-0.526,-0.622,27.5
$IMU,26836.099,-19.714,0.122,0.366,0.04199,1.01660,-0.00634,28.31
$IMU,26836.101,-19.165,0.183,0.488,0.03564,1.02001,-0.00195,28.31
$IMU,26836.103,-18.737,0.061,0.671,0.03125,1.02148,0.00097,28.31
$IMU,26836.106,-18.371,0.122,1.159,0.03417,1.02636,0.00390,28.31
$VBAT,26836.107,4.130
$IMU,26836.108,-17.883,-0.061,1.586,0.03906,1.02490,0.00537,28.31
$MAG,26836.109,-0.424,-0.531,-0.627,27.3
$IMU,26836.110,-17.150,-0.122,1.708,0.04394,1.02197,0.00244,28.31
$IMU,26836.113,-16.357,0.000,1.708,0.04492,1.01855,-0.00146,28.31
$IMU,26836.115,-15.441,0.061,1.525,0.04443,1.01416,-0.00683,28.31
$IMU,26836.117,-14.526,0.061,1.281,0.04492,1.00537,-0.00292,28.35
$MAG,26836.119,-0.429,-0.525,-0.630,27.5
$IMU,26836.120,-13.977,0.122,1.281,0.04003,1.00830,-0.00097,28.35
$IMU,26836.122,-13.916,0.122,1.464,0.03564,1.01318,-0.00634,28.35
$IMU,26836.125,-14.038,0.000,1.953,0.03710,1.02099,-0.00976,28.35
$IMU,26836.127,-14.343,0.000,2.502,0.03710,1.01464,-0.01953,28.35
$MAG,26836.129,-0.441,-0.526,-0.625,27.5
$IMU,26836.129,-14.648,0.183,2.746,0.04052,1.01416,-0.02197,28.35
$IMU,26836.132,-15.258,-0.061,2.746,0.04687,1.01757,-0.02441,28.35
$IMU,26836.134,-16.296,0.122,2.746,0.05078,1.01611,-0.02978,28.35
$IMU,26836.136,-17.150,0.122,2.685,0.03955,1.01513,-0.03271,28.34
$MAG,26836.139,-0.438,-0.526,-0.630,27.6
$IMU,26836.139,-18.432,0.000,2.685,0.04003,1.01562,-0.03271,28.34
$IMU,26836.141,-19.714,0.122,2.929,0.04052,1.01318,-0.03320,28.34
$IMU,26836.143,-21.057,0.183,3.356,0.03808,1.02880,-0.03222,28.34
$IMU,26836.146,-22.766,0.122,3.662,0.03857,1.03710,-0.03076,28.34
$IMU,26836.148,-24.414,0.305,4.089,0.04199,1.04589,-0.03076,28.34
$MAG,26836.149,-0.429,-0.531,-0.642,27.3
$IMU,26836.150,-25.939,0.366,4.394,0.04345,1.04345,-0.02441,28.34
$IMU,26836.153,-27.526,0.000,4.455,0.04736,1.03613,-0.02099,28.34
$IMU,26836.155,-28.991,0.244,4.394,0.04541,1.03271,-0.01611,28.32
$IMU,26836.157,-30.151,0.305,4.516,0.04492,1.02783,-0.00634,28.32
$BARO,26836.158,86868.42,28.51
$MAG,26836.159,-0.432,-0.522,-0.640,27.3
$IMU,26836.160,-31.005,0.061,4.821,0.04443,1.02929,-0.00146,28.32
$IMU,26836.162,-31.555,0.183,5.126,0.04394,1.02832,0.00683,28.32
$IMU,26836.164,-32.043,0.244,5.187,0.04833,1.02636,0.01171,28.32
$IMU,26836.167,-32.287,0.122,5.004,0.05029,1.02050,0.01464,28.32
$MAG,26836.169,-0.427,-0.522,-0.639,27.6
$IMU,26836.169,-32.165,0.183,4.943,0.05175,1.02441,0.02197,28.32
$IMU,26836.171,-32.165,0.427,5.004,0.04980,1.02294,0.02832,28.32
$IMU,26836.174,-31.677,0.183,4.882,0.05468,1.01953,0.03173,28.25
$IMU,26836.176,-30.944,0.122,4.821,0.05712,1.01562,0.03613,28.25
$IMU,26836.178,-30.212,0.244,4.638,0.06542,1.00146,0.04150,28.25
$MAG,26836.179,-0.436,-0.528,-0.637,27.6
$IMU,26836.181,-29.357,0.244,4.272,0.06250,0.99316,0.04687,28.25
$IMU,26836.183,-28.320,0.305,3.845,0.06298,0.98828,0.05273,28.25
$IMU,26836.186,-27.282,0.305,3.417,0.06445,0.97802,0.05566,28.25
$IMU,26836.188,-26.245,0.244,2.929,0.06640,0.97460,0.05859,28.25
$MAG,26836.189,-0.420,-0.525,-0.649,27.6
$IMU,26836.190,-24.780,0.305,2.624,0.06201,0.97509,0.06689,28.25
$IMU,26836.193,-23.315,0.427,2.563,0.06250,0.98046,0.07177,28.34
$IMU,26836.195,-21.423,0.305,2.380,0.06152,0.98193,0.07617,28.34
$IMU,26836.197,-19.470,0.366,2.258,0.05566,0.98876,0.08251,28.34
$MAG,26836.199,-0.433,-0.514,-0.655,27.6
$IMU,26836.200,-17.211,0.244,1.953,0.05957,0.99169,0.08593,28.34
$IMU,26836.202,-14.831,0.122,1.647,0.06298,0.99169,0.08789,28.34
$IMU,26836.204,-12.512,0.122,1.342,0.06103,0.99169,0.08642,28.34
$IMU,26836.207,-10.253,0.183,1.037,0.06054,0.98925,0.08642,28.34
$MAG,26836.209,-0.435,-0.513,-0.646,27.5
$IMU,26836.209,-8.300,0.061,0.793,0.06347,0.98925,0.08447,28.34
$IMU,26836.211,-6.591,-0.061,0.610,0.06005,0.98681,0.07861,28.33
$IMU,26836.214,-5.249,0.061,0.488,0.05810,0.98876,0.06787,28.33
$IMU,26836.216,-4.333,-0.122,0.305,0.05859,0.98876,0.05957,28.33
$IMU,26836.218,-4.150,-0.061,0.305,0.05908,0.98925,0.05029,28.33
$MAG,26836.220,-0.436,-0.519,-0.642,27.3
$IMU,26836.221,-4.394,-0.061,0.244,0.06005,0.98974,0.03857,28.33
$IMU,26836.223,-5.004,-0.122,0.122,0.06201,0.99267,0.03173,28.33
$IMU,26836.225,-5.981,-0.122,-0.061,0.06298,0.99853,0.02392,28.33
$IMU,26836.228,-7.507,0.000,-0.244,0.06250,1.00097,0.01708,28.33
$MAG,26836.230,-0.433,-0.516,-0.652,27.5
$IMU,26836.230,-9.033,-0.122,-0.427,0.06591,1.00683,0.01171,28.32
$IMU,26836.232,-10.803,-0.183,-0.671,0.06250,1.00634,0.01171,28.32
$IMU,26836.235,-12.756,0.122,-0.854,0.06250,1.01318,0.01123,28.32
$IMU,26836.237,-14.709,0.305,-0.854,0.06005,1.01367,0.00732,28.32
$IMU,26836.239,-16.479,0.000,-0.854,0.05566,1.01855,0.01074,28.32
$MAG,26836.240,-0.426,-0.517,-0.655,27.5
$IMU,26836.242,-18.249,0.061,-0.854,0.05273,1.02148,0.01074,28.32
$IMU,26836.244,-19.897,0.183,-0.793,0.05371,1.01855,0.01562,28.32
$IMU,26836.247,-21.179,0.122,-0.671,0.05273,1.02197,0.02197,28.32
$IMU,26836.249,-22.277,0.061,-0.488,0.04882,1.02490,0.02539,28.33
$MAG,26836.250,-0.432,-0.510,-0.649,27.6
$IMU,26836.251,-23.132,0.183,-0.427,0.04931,1.02636,0.03613,28.33
$IMU,26836.254,-23.559,0.122,-0.244,0.04638,1.02929,0.04443,28.33
$IMU,26836.256,-23.498,0.122,-0.061,0.04296,1.03271,0.05078,28.33
$IMU,26836.258,-23.132,0.183,0.122,0.04589,1.03222,0.06054,28.33
$BARO,26836.259,86863.70,28.50
$MAG,26836.260,-0.430,-0.505,-0.658,27.6
$IMU,26836.261,-22.094,0.183,0.061,0.04638,1.03564,0.07031,28.33
$IMU,26836.263,-20.751,0.061,-0.122,0.05175,1.03759,0.07958,28.33
$IMU,26836.265,-19.042,0.061,-0.427,0.05273,1.03759,0.08105,28.33
$IMU,26836.268,-16.723,-0.244,-0.671,0.05175,1.02880,0.08837,28.33
$MAG,26836.270,-0.427,-0.507,-0.660,27.5
$IMU,26836.270,-14.282,-0.305,-0.732,0.04589,1.02392,0.09521,28.33
$IMU,26836.272,-12.023,0.122,-0.671,0.04101,1.01660,0.09667,28.33
$IMU,26836.275,-9.338,0.061,-0.305,0.03857,1.01269,0.09472,28.33
$IMU,26836.277,-6.713,0.183,0.244,0.03613,0.99902,0.09472,28.33
$IMU,26836.279,-3.906,-0.061,0.854,0.03759,0.99951,0.09228,28.33
$MAG,26836.280,-0.429,-0.507,-0.655,27.5
$IMU,26836.282,-1.464,-0.122,1.220,0.04248,0.99902,0.08691,28.33
$IMU,26836.284,0.793,-0.122,1.342,0.04638,0.99804,0.08154,28.33
$IMU,26836.286,2.685,-0.366,1.342,0.04980,0.99951,0.07421,28.34
$IMU,26836.289,4.028,-0.366,1.220,0.05468,0.99902,0.06689,28.34
$MAG,26836.290,-0.433,-0.510,-0.652,27.5
$IMU,26836.291,4.821,-0.061,0.976,0.05712,0.99853,0.06005,28.34
$IMU,26836.293,5.371,-0.183,0.671,0.05957,0.99755,0.05322,28.34
$IMU,26836.296,5.493,-0.366,0.305,0.05810,0.99462,0.04785,28.34
$IMU,26836.298,5.004,0.000,0.183,0.05419,0.99658,0.04150,28.34
$MAG,26836.300,-0.427,-0.511,-0.657,27.5
$IMU,26836.300,4.394,-0.061,0.061,0.05566,0.99658,0.03710,28.34
$IMU,26836.303,3.417,-0.183,-0.061,0.05517,0.99951,0.03564,28.34
$IMU,26836.305,2.258,-0.122,-0.061,0.05517,0.99902,0.02929,28.32
$IMU,26836.307,0.793,-0.061,0.000,0.05468,0.99755,0.02783,28.32
$MAG,26836.310,-0.435,-0.513,-0.657,27.5
$IMU,26836.310,-0.915,0.000,-0.061,0.05712,0.99853,0.02490,28.32
$IMU,26836.312,-2.807,-0.061,-0.122,0.05517,1.00634,0.02490,28.32
$IMU,26836.315,-5.065,0.000,-0.183,0.05810,1.01074,0.02148,28.32
$IMU,26836.317,-7.507,0.000,-0.244,0.06005,1.01562,0.01708,28.32
$IMU,26836.319,-10.009,0.122,-0.427,0.05908,1.02441,0.01708,28.32
$MAG,26836.320,-0.427,-0.513,-0.664,27.5
$IMU,26836.322,-12.817,0.305,-0.549,0.05908,1.02294,0.01660,28.32
$IMU,26836.324,-15.380,0.183,-0.732,0.06054,1.02539,0.01660,28.34
$IMU,26836.326,-18.005,0.122,-0.793,0.06005,1.02783,0.01904,28.34
$IMU,26836.329,-20.507,0.122,-0.915,0.05859,1.03222,0.02343,28.34
$MAG,26836.330,-0.423,-0.513,-0.652,27.5
$IMU,26836.331,-22.888,0.183,-1.037,0.05517,1.02832,0.02783,28.34
$IMU,26836.333,-24.963,0.244,-1.098,0.05322,1.03027,0.03662,28.34
$IMU,26836.336,-26.184,0.244,-0.549,0.03271,1.02734,0.05371,28.34
$IMU,26836.338,-25.817,0.000,0.793,0.02050,1.01660,0.08251,28.34
$IMU,26836.340,-23.620,-0.488,2.685,0.01904,1.00292,0.10058,28.34
$MAG,26836.341,-0.445,-0.501,-0.660,27.5
$IMU,26836.343,-20.690,-0.732,4.089,0.03613,1.00292,0.11865,28.32
$IMU,26836.345,-17.517,0.061,4.760,0.04443,1.01708,0.11865,28.32
$IMU,26836.347,-14.648,-0.183,4.699,0.05957,1.02392,0.11669,28.32
$IMU,26836.350,-12.329,-0.122,3.662,0.07666,1.02099,0.11425,28.32
$MAG,26836.351,-0.432,-0.510,-0.667,27.5
$IMU,26836.352,-10.253,-0.183,1.770,0.08007,1.01220,0.11279,28.32
$IMU,26836.354,-8.361,-0.427,0.366,0.07031,1.00732,0.11132,28.32
$IMU,26836.357,-5.920,-0.488,-0.244,0.05517,1.00390,0.11132,28.32
$IMU,26836.359,-3.479,-0.366,-0.183,0.04980,1.00146,0.10546,28.32
$BARO,26836.361,86877.93,28.50
$MAG,26836.361,-0.433,-0.510,-0.664,27.5
$IMU,26836.361,-1.037,-0.244,0.122,0.04736,0.99072,0.09765,28.35
$IMU,26836.364,1.525,-0.427,0.488,0.04882,0.99218,0.09228,28.35
$IMU,26836.366,3.662,-0.366,0.671,0.05468,1.00048,0.08544,28.35
$IMU,26836.368,5.310,-0.244,0.427,0.06591,1.00195,0.08056,28.35
$MAG,26836.371,-0.427,-0.508,-0.661,27.5
$IMU,26836.371,6.408,-0.122,-0.366,0.07177,0.99658,0.07763,28.35
$IMU,26836.373,7.080,-0.122,-1.281,0.06884,0.99267,0.07275,28.35
$IMU,26836.376,7.629,-0.183,-1.831,0.06347,0.99169,0.07568,28.35
$IMU,26836.378,7.934,-0.122,-2.014,0.06201,0.98876,0.07324,28.35
$IMU,26836.380,8.178,-0.305,-2.014,0.05908,0.98925,0.07031,28.33
$MAG,26836.381,-0.430,-0.502,-0.660,27.6
$IMU,26836.383,8.361,-0.244,-1.892,0.05761,0.99707,0.06787,28.33
$IMU,26836.385,8.361,0.061,-1.770,0.05810,1.00537,0.06542,28.33
$IMU,26836.387,8.239,0.061,-1.708,0.05859,1.01855,0.05957,28.33
$IMU,26836.390,7.812,0.122,-1.831,0.05761,1.02050,0.05126,28.33
$MAG,26836.391,-0.438,-0.507,-0.663,27.5
$IMU,26836.392,6.958,0.000,-1.953,0.05761,1.02246,0.04882,28.33
$IMU,26836.394,5.676,0.000,-1.831,0.05322,1.01953,0.04394,28.33
$IMU,26836.397,4.394,0.000,-1.525,0.04931,1.01660,0.04296,28.33
$IMU,26836.399,2.685,0.061,-1.220,0.04736,1.01708,0.04394,28.33
$MAG,26836.401,-0.433,-0.504,-0.661,27.5
$IMU,26836.401,0.976,0.061,-0.671,0.04345,1.01318,0.04248,28.33
$IMU,26836.404,-0.610,-0.061,-0.183,0.04394,1.01806,0.04443,28.33
$HUM,26836.406,33.8,29.0
$IMU,26836.406,-2.075,0.000,0.244,0.04687,1.02001,0.04394,28.33
$IMU,26836.408,-3.479,0.061,0.549,0.05078,1.02148,0.04443,28.33
$MAG,26836.411,-0.432,-0.508,-0.657,27.6
$IMU,26836.411,-4.272,-0.122,0.610,0.05126,1.02441,0.04882,28.33
$IMU,26836.413,-4.943,-0.122,0.488,0.05615,1.02587,0.05566,28.33
$IMU,26836.415,-5.493,-0.122,0.427,0.05468,1.02783,0.05957,28.33
$IMU,26836.418,-5.493,-0.305,0.366,0.05126,1.02197,0.05957,28.33
$IMU,26836.420,-5.493,-0.061,0.244,0.05224,1.01464,0.06738,28.33
$MAG,26836.421,-0.433,-0.516,-0.660,27.5
$IMU,26836.422,-5.187,-0.183,0.183,0.04882,1.01074,0.06787,28.33
$IMU,26836.425,-4.760,-0.305,0.183,0.04638,1.01025,0.06835,28.33
$IMU,26836.427,-4.394,-0.061,0.305,0.04687,1.00439,0.06640,28.33
$IMU,26836.429,-3.967,-0.183,0.244,0.04980,1.00439,0.06250,28.33
$MAG,26836.431,-0.433,-0.505,-0.667,27.5
$IMU,26836.432,-3.845,-0.305,0.244,0.04785,1.00488,0.05957,28.33
$IMU,26836.434,-3.784,-0.244,0.244,0.05078,1.00585,0.06005,28.33
$IMU,26836.437,-3.723,-0.244,0.244,0.05029,1.00781,0.05908,28.32
$IMU,26836.439,-3.723,-0.305,0.305,0.04931,1.01025,0.05908,28.32
$MAG,26836.441,-0.424,-0.513,-0.663,27.5
$IMU,26836.441,-3.723,-0.305,0.488,0.04541,1.00634,0.05859,28.32
$IMU,26836.444,-3.662,-0.244,0.610,0.04345,1.00732,0.06103,28.32
$IMU,26836.446,-3.540,-0.366,0.793,0.04541,1.00927,0.06347,28.32
$IMU,26836.448,-3.723,-0.244,0.915,0.05126,1.00976,0.06396,28.32
$IMU,26836.451,-3.906,-0.183,0.915,0.05419,1.00830,0.06298,28.32
$MAG,26836.452,-0.427,-0.511,-0.664,27.3
$IMU,26836.453,-4.089,-0.183,0.854,0.05371,1.00878,0.06298,28.32
$IMU,26836.455,-4.516,-0.061,0.793,0.05224,1.01318,0.06347,28.35
$IMU,26836.458,-4.699,-0.244,0.793,0.05419,1.01220,0.06445,28.35
$IMU,26836.460,-5.004,-0.366,0.732,0.05224,1.01220,0.06347,28.35
$BARO,26836.462,86860.67,28.50
$MAG,26836.462,-0.421,-0.501,-0.657,27.5
$IMU,26836.462,-5.432,-0.183,0.976,0.05615,1.01513,0.06054,28.35
$IMU,26836.465,-5.737,-0.122,1.098,0.05566,1.01318,0.06201,28.35
$IMU,26836.467,-5.920,-0.122,1.159,0.05517,1.01562,0.06445,28.35
$IMU,26836.469,-6.225,-0.183,1.220,0.05908,1.01660,0.06787,28.35
$MAG,26836.472,-0.427,-0.510,-0.661,27.6
$IMU,26836.472,-6.591,-0.183,1.159,0.05810,1.01855,0.06494,28.35
$IMU,26836.474,-6.896,-0.244,1.037,0.05859,1.01269,0.06347,28.34
$IMU,26836.476,-7.324,-0.183,0.976,0.05859,1.01562,0.06494,28.34
$IMU,26836.479,-7.751,-0.183,0.976,0.05566,1.01367,0.06542,28.34
$IMU,26836.481,-7.995,-0.366,1.098,0.05712,1.01074,0.06738,28.34
$MAG,26836.482,-0.424,-0.511,-0.672,27.6
$IMU,26836.483,-8.422,-0.305,1.220,0.05566,1.00976,0.06347,28.34
$IMU,26836.486,-8.911,-0.183,1.403,0.05468,1.00830,0.06494,28.34
$IMU,26836.488,-9.216,-0.183,1.525,0.05371,1.00634,0.06542,28.34
$IMU,26836.490,-9.521,-0.183,1.586,0.05468,1.00781,0.06738,28.34
$MAG,26836.492,-0.433,-0.504,-0.661,27.6
$IMU,26836.493,-9.887,-0.122,1.647,0.05615,1.00781,0.06591,28.33
$IMU,26836.495,-10.253,-0.122,1.647,0.05664,1.00732,0.06591,28.33
$IMU,26836.498,-10.559,-0.244,1.708,0.05419,1.00830,0.06298,28.33
$IMU,26836.500,-10.925,-0.183,1.708,0.05615,1.00341,0.06542,28.33
$MAG,26836.502,-0.436,-0.502,-0.669,27.6
$IMU,26836.502,-11.230,-0.061,1.708,0.05468,1.00439,0.06298,28.33
$IMU,26836.505,-11.413,-0.183,1.831,0.05615,1.00585,0.06542,28.33
$IMU,26836.507,-11.718,-0.183,1.892,0.05615,1.00683,0.06591,28.33
$IMU,26836.509,-11.779,-0.183,1.892,0.05712,1.00878,0.07373,28.33
$MAG,26836.512,-0.436,-0.505,-0.667,27.5
$IMU,26836.512,-11.413,-0.183,1.770,0.05810,1.01416,0.08691,28.32
$IMU,26836.514,-10.437,-0.183,1.464,0.05810,1.01025,0.09570,28.32
$IMU,26836.516,-8.911,-0.122,1.098,0.06152,1.01171,0.10546,28.32
$IMU,26836.519,-7.080,-0.061,0.793,0.05566,1.00732,0.11376,28.32
$IMU,26836.521,-4.760,-0.305,0.427,0.05859,1.00244,0.11669,28.32
$MAG,26836.522,-0.436,-0.510,-0.667,27.5
$IMU,26836.523,-2.563,-0.183,0.183,0.05859,1.00683,0.11914,28.32
$IMU,26836.526,-0.427,0.000,-0.061,0.05859,1.00781,0.11767,28.32
$IMU,26836.528,1.770,-0.061,-0.305,0.05859,1.00634,0.11914,28.32
$IMU,26836.530,4.028,-0.061,-0.549,0.05957,1.00537,0.11425,28.35
$MAG,26836.532,-0.432,-0.504,-0.673,27.6
$IMU,26836.533,6.103,-0.061,-0.854,0.05908,1.00683,0.11621,28.35
$IMU,26836.535,8.117,-0.183,-1.342,0.05908,1.00439,0.11083,28.35
$IMU,26836.537,9.948,-0.122,-1.770,0.05908,1.00244,0.10644,28.35
$IMU,26836.540,11.474,0.000,-2.014,0.05908,1.00195,0.09960,28.35
$MAG,26836.542,-0.435,-0.508,-0.669,27.6
$IMU,26836.542,12.878,0.061,-2.197,0.05712,1.00048,0.09619,28.35
$IMU,26836.544,14.038,-0.183,-2.441,0.05859,0.99951,0.08837,28.35
$IMU,26836.547,14.587,-0.244,-2.685,0.06005,0.99609,0.07910,28.35
$IMU,26836.549,14.831,-0.183,-2.868,0.05859,0.99414,0.07568,28.35
$IMU,26836.551,14.709,-0.183,-3.112,0.05957,0.99804,0.06591,28.35
$MAG,26836.552,-0.430,-0.513,-0.667,27.5
$IMU,26836.554,14.343,-0.122,-3.234,0.05664,0.99951,0.06298,28.35
$IMU,26836.556,13.916,-0.061,-3.234,0.05761,1.00048,0.06494,28.35
$IMU,26836.559,13.732,0.061,-3.234,0.05517,1.00341,0.06494,28.35
$IMU,26836.561,13.610,-0.061,-3.112,0.05371,1.00439,0.06494,28.35
$BARO,26836.563,86869.35,28.50
$MAG,26836.563,-0.430,-0.511,-0.661,27.5
$IMU,26836.563,13.366,-0.122,-2.990,0.05419,1.00878,0.06494,28.35
$IMU,26836.566,13.061,0.000,-2.929,0.05224,1.00976,0.06152,28.35
$IMU,26836.568,12.695,0.061,-2.929,0.05517,1.01464,0.06103,28.31
$IMU,26836.570,12.268,0.000,-2.990,0.05175,1.01171,0.06250,28.31
$MAG,26836.573,-0.435,-0.514,-0.660,27.6
$IMU,26836.573,11.779,-0.061,-2.990,0.05175,1.01464,0.06250,28.31
$IMU,26836.575,11.413,-0.183,-2.807,0.05078,1.01513,0.06152,28.31
$IMU,26836.577,10.803,0.000,-2.624,0.04687,1.02001,0.06005,28.31
$IMU,26836.580,10.131,-0.061,-2.380,0.04833,1.02001,0.05517,28.31
$IMU,26836.582,9.216,0.000,-2.014,0.04492,1.01953,0.05273,28.31
$MAG,26836.583,-0.435,-0.507,-0.669,27.6
$IMU,26836.584,7.934,-0.061,-1.586,0.04492,1.02490,0.04443,28.31
$IMU,26836.587,6.469,-0.244,-1.159,0.04492,1.02783,0.04248,28.34
$IMU,26836.589,4.760,-0.183,-0.793,0.04736,1.02490,0.03515,28.34
$IMU,26836.591,2.929,-0.061,-0.488,0.04785,1.02099,0.03173,28.34
$MAG,26836.593,-0.430,-0.511,-0.664,27.6
$IMU,26836.594,1.037,-0.183,-0.244,0.05126,1.02294,0.02978,28.34
$IMU,26836.596,-0.854,-0.061,0.000,0.05371,1.01806,0.02929,28.34
$IMU,26836.598,-2.441,0.000,0.183,0.05029,1.02099,0.03076,28.34
$IMU,26836.601,-3.845,-0.244,0.427,0.05273,1.01562,0.03417,28.34
$MAG,26836.603,-0.433,-0.502,-0.657,27.3
$IMU,26836.603,-5.187,-0.122,0.610,0.05029,1.01464,0.03759,28.34
$IMU,26836.605,-6.164,-0.061,0.732,0.04882,1.01220,0.04248,28.36
$IMU,26836.608,-6.958,-0.122,0.976,0.05126,1.01025,0.04833,28.36
$IMU,26836.610,-7.446,0.000,1.037,0.05078,1.00585,0.05468,28.36
$IMU,26836.612,-7.751,-0.244,1.098,0.04980,1.00195,0.06005,28.36
$MAG,26836.613,-0.429,-0.507,-0.663,27.5
$IMU,26836.615,-7.873,-0.244,1.220,0.05126,1.00537,0.05761,28.36
$IMU,26836.617,-7.995,-0.122,1.220,0.05126,0.99951,0.06054,28.36
$IMU,26836.620,-8.239,-0.122,1.342,0.04980,1.00097,0.05908,28.36
$IMU,26836.622,-8.239,-0.183,1.342,0.04980,1.00341,0.06152,28.36
$MAG,26836.623,-0.432,-0.514,-0.657,27.5
$IMU,26836.624,-8.422,-0.244,1.464,0.05029,1.00537,0.06103,28.37
$IMU,26836.627,-8.544,-0.244,1.586,0.05175,1.00732,0.06250,28.37
$IMU,26836.629,-8.666,-0.183,1.647,0.04833,1.00585,0.06201,28.37
$IMU,26836.631,-8.728,-0.183,1.708,0.05273,1.01123,0.06250,28.37
$MAG,26836.633,-0.432,-0.507,-0.660,27.6
$IMU,26836.634,-9.033,-0.183,1.708,0.05419,1.00830,0.06250,28.37
$IMU,26836.636,-9.277,-0.244,1.831,0.05664,1.01220,0.06445,28.37
$IMU,26836.638,-9.582,-0.122,1.831,0.05273,1.01416,0.06494,28.37
$IMU,26836.641,-10.009,-0.122,1.770,0.05517,1.01416,0.06591,28.37
$MAG,26836.643,-0.433,-0.510,-0.667,27.6
$IMU,26836.643,-10.437,-0.183,1.770,0.05712,1.01562,0.06591,28.38
$IMU,26836.645,-10.864,-0.122,1.953,0.05957,1.01464,0.06738,28.38
$IMU,26836.648,-11.230,-0.183,2.014,0.05712,1.01416,0.06689,28.38
$IMU,26836.650,-11.718,-0.122,2.136,0.05712,1.01513,0.06689,28.38
$IMU,26836.652,-12.207,-0.122,2.136,0.05468,1.01855,0.06591,28.38
$MAG,26836.653,-0.441,-0.508,-0.672,27.5
$IMU,26836.655,-12.695,-0.183,2.075,0.05322,1.02197,0.06884,28.38
$IMU,26836.657,-13.183,-0.122,1.953,0.05517,1.02099,0.06933,28.38
$IMU,26836.659,-13.793,0.000,2.075,0.05419,1.01855,0.06884,28.38
$IMU,26836.662,-14.160,0.000,2.258,0.05273,1.01513,0.06835,28.33
$MAG,26836.663,-0.442,-0.501,-0.673,27.6
$IMU,26836.664,-14.587,-0.183,2.319,0.05029,1.01611,0.06933,28.33
$BARO,26836.665,86860.14,28.49
$IMU,26836.666,-15.075,-0.305,2.502,0.05224,1.00976,0.06982,28.33
$IMU,26836.669,-15.625,-0.183,2.685,0.05468,1.01025,0.06884,28.33
$IMU,26836.671,-16.174,-0.122,2.868,0.05419,1.01074,0.06884,28.33
$IMU,26836.673,-16.784,-0.122,2.929,0.05322,1.00585,0.06835,28.33
$MAG,26836.674,-0.435,-0.502,-0.667,27.6
$IMU,26836.676,-17.211,-0.244,2.929,0.05224,1.00537,0.06884,28.33
$IMU,26836.678,-17.639,-0.305,2.929,0.05126,1.00732,0.06787,28.33
$IMU,26836.680,-18.066,-0.183,2.929,0.05371,1.00732,0.07031,28.35
$IMU,26836.683,-18.493,-0.122,3.173,0.05322,1.00585,0.07177,28.35
$MAG,26836.684,-0.436,-0.510,-0.672,27.5
$IMU,26836.685,-18.798,-0.122,3.234,0.05566,1.00976,0.07080,28.35
$IMU,26836.688,-18.676,0.305,2.807,0.06787,1.01416,0.08154,28.35
$IMU,26836.690,-17.639,0.122,1.708,0.07568,1.01757,0.09863,28.35
$IMU,26836.692,-15.991,0.000,0.305,0.07177,1.00976,0.10888,28.35
$MAG,26836.694,-0.435,-0.501,-0.673,27.6
$IMU,26836.695,-13.854,0.000,-0.793,0.06445,0.99755,0.11572,28.35
$IMU,26836.697,-11.352,0.000,-1.159,0.05273,0.98974,0.12402,28.35
$IMU,26836.699,-8.666,-0.061,-0.732,0.04101,0.98291,0.13330,28.34
$IMU,26836.702,-6.103,-0.183,0.122,0.03857,0.98291,0.13671,28.34
$MAG,26836.704,-0.430,-0.508,-0.672,27.6
$IMU,26836.704,-3.479,0.000,0.793,0.04687,0.98925,0.14013,28.34
$IMU,26836.706,-0.915,0.061,0.793,0.05810,0.99951,0.14208,28.34
$IMU,26836.709,1.647,-0.061,0.244,0.06103,1.00732,0.13671,28.34
$IMU,26836.711,4.028,-0.183,-0.427,0.06005,1.00634,0.13330,28.34
$IMU,26836.713,6.286,-0.122,-0.610,0.05566,1.00585,0.12841,28.34
$MAG,26836.714,-0.433,-0.502,-0.673,27.5
$IMU,26836.716,8.300,-0.305,-0.549,0.05029,1.00683,0.12353,28.34
$IMU,26836.718,9.887,-0.244,-0.244,0.04882,1.00781,0.11816,28.30
$IMU,26836.720,11.047,-0.305,0.305,0.05126,1.01171,0.10937,28.30
$IMU,26836.723,11.718,-0.244,0.549,0.06103,1.01562,0.09960,28.30
$MAG,26836.724,-0.433,-0.496,-0.667,27.7
$IMU,26836.725,11.779,-0.305,0.122,0.06689,1.02343,0.09375,28.30
$IMU,26836.727,11.291,-0.305,-0.488,0.07324,1.02636,0.08203,28.30
$IMU,26836.730,10.192,-0.122,-1.281,0.07226,1.02734,0.07080,28.30
$IMU,26836.732,9.155,-0.244,-1.953,0.07080,1.02392,0.06884,28.30
$MAG,26836.734,-0.432,-0.502,-0.660,27.6
$IMU,26836.734,8.239,-0.183,-2.380,0.06347,1.01513,0.06640,28.30
$IMU,26836.737,7.629,-0.183,-2.197,0.05664,1.00781,0.06738,28.34
$IMU,26836.739,7.141,-0.183,-1.770,0.05468,1.00292,0.06835,28.34
$IMU,26836.741,6.774,-0.244,-1.342,0.05615,1.00439,0.06640,28.34
$MAG,26836.744,-0.439,-0.505,-0.676,27.5
$IMU,26836.744,6.164,0.000,-1.037,0.05810,1.00585,0.07031,28.34
$IMU,26836.746,5.432,0.183,-1.098,0.06103,1.00292,0.06884,28.34
$IMU,26836.749,4.699,0.061,-1.464,0.06591,1.00292,0.06738,28.34
$IMU,26836.751,3.906,-0.061,-1.831,0.06201,1.00048,0.06835,28.34
$IMU,26836.753,3.295,-0.122,-2.014,0.05615,0.99658,0.06787,28.34
$MAG,26836.754,-0.436,-0.505,-0.666,27.6
$IMU,26836.756,2.685,0.000,-1.892,0.04931,0.99365,0.06640,28.35
$IMU,26836.758,2.380,-0.305,-1.464,0.04541,0.99707,0.06982,28.35
$IMU,26836.760,1.953,0.000,-0.976,0.04443,1.00341,0.06787,28.35
$IMU,26836.763,1.770,0.000,-0.671,0.04589,1.00195,0.06689,28.35
$MAG,26836.764,-0.441,-0.507,-0.664,27.6
$IMU,26836.765,1.586,-0.122,-0.549,0.05078,1.00488,0.06640,28.35
$BARO,26836.766,86871.30,28.50
$IMU,26836.767,1.220,-0.061,-0.549,0.05517,1.00927,0.06738,28.35
$IMU,26836.770,0.854,-0.122,-0.610,0.05273,1.01416,0.06787,28.35
$IMU,26836.772,0.427,-0.122,-0.671,0.05175,1.01660,0.06738,28.35
$MAG,26836.774,-0.430,-0.505,-0.672,27.6
$IMU,26836.774,0.000,-0.122,-0.610,0.05322,1.01953,0.06591,28.33
$IMU,26836.777,-0.366,-0.061,-0.244,0.04980,1.01855,0.06933,28.33
$IMU,26836.779,-0.732,-0.122,-0.061,0.05273,1.02001,0.07080,28.33
$IMU,26836.781,-1.220,-0.183,0.183,0.05517,1.02343,0.06982,28.33
$IMU,26836.784,-1.708,0.000,0.305,0.05615,1.02441,0.06884,28.33
$MAG,26836.785,-0.433,-0.508,-0.673,27.6
$IMU,26836.786,-2.258,0.122,0.305,0.05615,1.02636,0.06982,28.33
$IMU,26836.788,-2.624,-0.244,0.305,0.05566,1.02685,0.07177,28.33
$IMU,26836.791,-3.173,-0.122,0.305,0.05419,1.02636,0.06982,28.33
$IMU,26836.793,-3.601,-0.122,0.366,0.05371,1.02294,0.07177,28.39
$MAG,26836.795,-0.438,-0.510,-0.670,27.6
$IMU,26836.795,-4.150,-0.122,0.610,0.05224,1.01904,0.07324,28.39
$IMU,26836.798,-4.760,-0.061,0.854,0.04980,1.01708,0.07031,28.39
$IMU,26836.800,-5.432,-0.061,1.098,0.05126,1.01367,0.06835,28.39
$IMU,26836.802,-6.103,-0.122,1.342,0.05468,1.01367,0.07177,28.39
$MAG,26836.805,-0.430,-0.508,-0.672,27.5
$IMU,26836.805,-6.652,-0.183,1.403,0.05371,1.01123,0.07226,28.39
$IMU,26836.807,-7.324,-0.122,1.586,0.05419,1.01220,0.06933,28.39
$IMU,26836.810,-8.117,0.000,1.586,0.05664,1.01269,0.06835,28.39
$IMU,26836.812,-8.789,-0.122,1.708,0.05761,1.00634,0.06982,28.38
$IMU,26836.814,-9.521,0.000,1.770,0.05664,1.00292,0.07031,28.38
$MAG,26836.815,-0.430,-0.504,-0.669,27.6
$IMU,26836.817,-10.070,-0.183,1.892,0.05615,1.00292,0.07128,28.38
$IMU,26836.819,-10.314,-0.061,1.770,0.06298,1.00585,0.07812,28.38
$IMU,26836.821,-10.070,-0.061,1.342,0.06884,1.00732,0.08398,28.38
$IMU,26836.824,-9.338,0.061,0.610,0.06933,1.00244,0.09277,28.38
$MAG,26836.825,-0.436,-0.505,-0.667,27.5
$IMU,26836.826,-8.239,0.061,0.061,0.06591,1.00000,0.09765,28.38
$IMU,26836.828,-6.896,-0.122,-0.427,0.06201,0.99560,0.10546,28.38
$IMU,26836.831,-5.554,-0.122,-0.427,0.05078,0.98730,0.10888,28.36
$IMU,26836.833,-4.272,-0.061,-0.183,0.04882,0.98828,0.11816,28.36
$MAG,26836.835,-0.438,-0.508,-0.669,27.6
$IMU,26836.835,-2.807,0.000,0.061,0.05175,0.98681,0.11914,28.36
$IMU,26836.838,-1.464,0.061,0.000,0.05566,0.99414,0.11621,28.36
$IMU,26836.840,0.000,0.000,-0.183,0.05615,0.99658,0.11718,28.36
$IMU,26836.842,1.464,0.000,-0.488,0.05664,0.99853,0.11474,28.36
$MAG,26836.845,-0.436,-0.499,-0.663,27.5
$IMU,26836.845,3.051,-0.122,-0.793,0.05712,1.00292,0.11572,28.36
$IMU,26836.847,4.333,-0.061,-0.732,0.05371,1.00195,0.11083,28.36
$IMU,26836.849,5.371,-0.061,-0.549,0.05175,1.00537,0.10742,28.34
$IMU,26836.852,6.286,-0.122,-0.305,0.05126,1.00927,0.10351,28.34
$IMU,26836.854,6.835,-0.244,-0.061,0.05419,1.01464,0.09814,28.34
$MAG,26836.855,-0.435,-0.513,-0.676,27.6
$IMU,26836.856,7.019,-0.183,-0.183,0.05761,1.02148,0.09033,28.34
$IMU,26836.859,6.958,-0.305,-0.366,0.06347,1.02050,0.08496,28.34
$IMU,26836.861,6.286,-0.183,-0.793,0.06738,1.02148,0.07861,28.34
$IMU,26836.863,5.493,-0.183,-1.037,0.06445,1.02246,0.07226,28.34
$MAG,26836.865,-0.432,-0.510,-0.666,27.6
$IMU,26836.866,4.699,-0.122,-1.098,0.06201,1.01855,0.06933,28.34
$BARO,26836.868,86852.95,28.49
$IMU,26836.868,4.089,-0.244,-1.098,0.05908,1.01562,0.07031,28.35
$IMU,26836.871,3.479,-0.183,-1.037,0.05664,1.01660,0.06738,28.35
$IMU,26836.873,2.990,-0.061,-0.854,0.05664,1.01269,0.06835,28.35
$MAG,26836.875,-0.436,-0.499,-0.670,27.6
$IMU,26836.875,2.502,0.000,-0.793,0.05419,1.01123,0.06738,28.35
$IMU,26836.878,2.075,0.061,-0.793,0.05810,1.00878,0.06835,28.35
$IMU,26836.880,1.464,0.183,-0.793,0.05468,1.01074,0.06738,28.35
$IMU,26836.882,0.915,0.122,-0.854,0.05859,1.00585,0.06933,28.35
$MAG,26836.885,-0.429,-0.504,-0.672,27.6
$IMU,26836.885,0.427,0.061,-0.793,0.05419,1.00976,0.06933,28.35
$IMU,26836.887,-0.305,0.061,-0.793,0.04980,1.00341,0.06933,28.34
$IMU,26836.889,-0.793,0.000,-0.610,0.05078,1.00292,0.06884,28.34
$IMU,26836.892,-1.159,-0.122,-0.366,0.04882,1.00439,0.06933,28.34
$IMU,26836.894,-1.708,0.061,-0.061,0.04833,1.01025,0.06982,28.34
$MAG,26836.895,-0.435,-0.507,-0.672,27.6
$IMU,26836.896,-2.014,-0.122,0.183,0.04882,1.00927,0.06835,28.34
$IMU,26836.899,-2.380,-0.183,0.366,0.05078,1.01269,0.06933,28.34
$IMU,26836.901,-2.868,-0.183,0.488,0.05322,1.01171,0.06884,28.34
$IMU,26836.903,-3.295,-0.122,0.488,0.05566,1.01269,0.06591,28.34
$MAG,26836.906,-0.436,-0.496,-0.675,27.6
$IMU,26836.906,-3.662,-0.366,0.610,0.05273,1.01513,0.07226,28.32
$IMU,26836.908,-4.272,-0.183,0.793,0.05273,1.01708,0.07275,28.32
$IMU,26836.910,-4.699,-0.183,0.793,0.05419,1.01708,0.07421,28.32
$IMU,26836.913,-5.126,-0.061,0.732,0.05761,1.01708,0.07617,28.32
$IMU,26836.915,-5.187,0.000,0.549,0.05859,1.01855,0.08203,28.32
$MAG,26836.916,-0.430,-0.504,-0.669,27.6
$IMU,26836.917,-5.065,0.061,0.488,0.06005,1.01562,0.08496,28.32
$IMU,26836.920,-4.516,-0.061,0.305,0.05908,1.01416,0.09179,28.32
$IMU,26836.922,-3.967,-0.061,0.244,0.05761,1.01220,0.09082,28.32
$IMU,26836.924,-3.479,0.122,0.061,0.05859,1.00878,0.09667,28.38
$MAG,26836.926,-0.426,-0.505,-0.675,27.5
$IMU,26836.927,-2.929,0.244,0.122,0.05224,1.00732,0.09765,28.38
$IMU,26836.929,-2.258,0.000,0.183,0.05712,1.00781,0.09960,28.38
$IMU,26836.932,-1.647,-0.061,0.061,0.05322,1.00732,0.10107,28.38
$IMU,26836.934,-1.037,0.000,0.061,0.05517,1.00390,0.10253,28.38
$MAG,26836.936,-0.433,-0.510,-0.676,27.3
$IMU,26836.936,-0.427,-0.122,0.122,0.05810,1.00634,0.10107,28.38
$IMU,26836.939,0.244,-0.122,0.000,0.05517,1.00585,0.09863,28.38
$IMU,26836.941,0.854,-0.061,0.000,0.05566,1.00585,0.09765,28.38
$IMU,26836.943,1.342,-0.122,0.000,0.05664,1.00244,0.09716,28.33
$MAG,26836.946,-0.421,-0.499,-0.670,27.6
$IMU,26836.946,1.831,-0.366,0.000,0.05664,1.00439,0.09423,28.33
$IMU,26836.948,2.136,-0.183,-0.061,0.05908,1.00292,0.09179,28.33
$IMU,26836.950,2.258,-0.122,-0.122,0.06201,1.00341,0.08740,28.33
$IMU,26836.953,2.380,-0.183,-0.244,0.06103,1.00341,0.08789,28.33
$IMU,26836.955,2.319,-0.061,-0.305,0.06201,1.00732,0.08398,28.33
$MAG,26836.956,-0.432,-0.508,-0.673,27.6
$IMU,26836.957,2.136,-0.122,-0.366,0.05957,1.00439,0.08105,28.33
$IMU,26836.960,1.953,-0.244,-0.549,0.06152,1.00341,0.07910,28.33
$IMU,26836.962,1.586,-0.244,-0.610,0.05859,1.00732,0.07666,28.37
$IMU,26836.964,1.220,0.000,-0.610,0.05712,1.00341,0.07617,28.37
$MAG,26836.966,-0.430,-0.516,-0.667,27.6
$IMU,26836.967,0.793,0.000,-0.610,0.06005,1.00683,0.07763,28.37
$BARO,26836.969,86863.55,28.49
$IMU,26836.969,0.610,-0.244,-0.610,0.05712,1.00634,0.07373,28.37
$IMU,26836.971,0.244,-0.122,-0.610,0.05908,1.00683,0.07617,28.37
$IMU,26836.974,-0.061,0.000,-0.610,0.05664,1.00830,0.07519,28.37
$MAG,26836.976,-0.427,-0.510,-0.672,27.6
$IMU,26836.976,-0.366,-0.122,-0.610,0.05615,1.01074,0.07421,28.37
$IMU,26836.978,-0.671,0.000,-0.610,0.06005,1.01074,0.07568,28.37
$IMU,26836.981,-0.793,0.122,-0.610,0.05273,1.01123,0.07861,28.35
$IMU,26836.983,-0.854,0.000,-0.549,0.04980,1.01074,0.08007,28.35
$IMU,26836.985,-0.915,-0.122,-0.366,0.05175,1.01269,0.07910,28.35
$MAG,26836.986,-0.429,-0.504,-0.667,27.5
$IMU,26836.988,-1.098,-0.061,-0.305,0.05224,1.01074,0.08251,28.35
$IMU,26836.990,-1.098,0.061,-0.244,0.05224,1.01416,0.08398,28.35
$IMU,26836.993,-0.915,-0.061,-0.122,0.05419,1.01367,0.08154,28.35
$IMU,26836.995,-0.732,-0.061,-0.122,0.05419,1.01660,0.08398,28.35
$MAG,26836.996,-0.429,-0.496,-0.669,27.3
$IMU,26836.997,-0.488,-0.122,-0.122,0.05175,1.01904,0.08642,28.35
$IMU,26837.000,-0.244,-0.183,-0.122,0.05224,1.01562,0.08398,28.37
$IMU,26837.002,-0.061,-0.305,-0.122,0.05517,1.01562,0.08447,28.37
$IMU,26837.004,0.000,-0.122,-0.061,0.05712,1.01562,0.08300,28.37
$MAG,26837.006,-0.432,-0.504,-0.675,27.5
$IMU,26837.007,0.061,-0.122,0.061,0.05566,1.01416,0.08105,28.37
$IMU,26837.009,0.061,-0.122,0.122,0.05371,1.01416,0.08251,28.37
$IMU,26837.011,0.122,-0.183,0.122,0.06054,1.01464,0.08398,28.37
$IMU,26837.014,-0.061,-0.183,0.122,0.05761,1.01416,0.08203,28.37
$IMU,26837.016,-0.183,-0.122,0.061,0.05566,1.01318,0.08203,28.37
$MAG,26837.017,-0.438,-0.504,-0.657,27.6
$IMU,26837.018,-0.366,0.000,0.000,0.05761,1.00830,0.08203,28.39
$IMU,26837.021,-0.549,0.061,0.122,0.05664,1.00732,0.08105,28.39
$IMU,26837.023,-0.732,-0.061,0.122,0.05517,1.00781,0.08203,28.39
$IMU,26837.025,-0.915,-0.183,0.122,0.05664,1.00732,0.08203,28.39
$MAG,26837.027,-0.423,-0.507,-0.679,27.6
$IMU,26837.028,-1.159,-0.061,0.244,0.05761,1.00732,0.08203,28.39
$IMU,26837.030,-1.281,0.061,0.122,0.06005,1.00341,0.08251,28.39
$IMU,26837.032,-1.342,-0.122,0.000,0.05957,1.00585,0.08203,28.39
$IMU,26837.035,-1.403,-0.122,-0.061,0.05712,1.00439,0.08398,28.39
$MAG,26837.037,-0.441,-0.505,-0.673,27.5
$IMU,26837.037,-1.403,-0.122,-0.061,0.05908,1.00146,0.08496,28.37
$IMU,26837.039,-1.281,-0.122,-0.061,0.05810,1.00292,0.08349,28.37
$IMU,26837.042,-1.220,-0.122,-0.122,0.05908,1.00048,0.08789,28.37
$IMU,26837.044,-1.220,0.061,-0.183,0.06005,0.99902,0.08935,28.37
$IMU,26837.046,-0.976,0.061,-0.244,0.06005,1.00195,0.08984,28.37
$MAG,26837.047,-0.432,-0.502,-0.672,27.6
$IMU,26837.049,-0.793,-0.061,-0.305,0.05908,1.00341,0.08837,28.37
$IMU,26837.051,-0.549,-0.122,-0.366,0.05761,1.00439,0.09179,28.37
$IMU,26837.053,-0.305,-0.061,-0.427,0.05712,1.00634,0.08935,28.37
$IMU,26837.056,-0.061,-0.061,-0.427,0.05615,1.00390,0.08837,28.33
$MAG,26837.057,-0.427,-0.498,-0.669,27.6
$IMU,26837.058,0.244,0.000,-0.427,0.05419,1.00830,0.09033,28.33
$IMU,26837.061,0.488,0.000,-0.366,0.05517,1.00830,0.09033,28.33
$IMU,26837.063,0.610,0.061,-0.305,0.05615,1.01318,0.08496,28.33
$IMU,26837.065,0.854,-0.183,-0.366,0.05615,1.01269,0.08740,28.33
$MAG,26837.067,-0.435,-0.495,-0.669,27.5
$IMU,26837.068,0.915,-0.061,-0.427,0.05566,1.01318,0.08642,28.33
$IMU,26837.070,0.976,-0.061,-0.488,0.05712,1.01660,0.08740,28.33
$BARO,26837.071,86873.37,28.50
$IMU,26837.072,0.976,-0.061,-0.488,0.05615,1.01074,0.08300,28.33
$IMU,26837.075,0.915,-0.183,-0.427,0.05468,1.00927,0.08300,28.42
$MAG,26837.077,-0.438,-0.505,-0.675,27.6
$IMU,26837.077,0.854,-0.061,-0.305,0.05371,1.01318,0.08105,28.42
$IMU,26837.079,0.793,-0.244,-0.305,0.05175,1.01367,0.07958,28.42
$IMU,26837.082,0.610,-0.183,-0.305,0.05517,1.01074,0.08105,28.42
$IMU,26837.084,0.244,-0.122,-0.305,0.05566,1.01513,0.07812,28.42
$IMU,26837.086,0.183,-0.061,-0.244,0.05517,1.01269,0.07910,28.42
$MAG,26837.087,-0.435,-0.511,-0.667,27.6
$IMU,26837.089,0.061,-0.183,-0.244,0.05664,1.01123,0.07763,28.42
$IMU,26837.091,-0.122,-0.183,-0.183,0.05566,1.00878,0.07763,28.42
$IMU,26837.093,-0.366,-0.061,-0.122,0.05419,1.00927,0.07861,28.32
$IMU,26837.096,-0.610,0.000,-0.122,0.05664,1.00927,0.08105,28.32
$MAG,26837.097,-0.432,-0.502,-0.673,27.5
$IMU,26837.098,-0.732,0.000,-0.061,0.05468,1.00781,0.07519,28.32
$IMU,26837.100,-0.915,0.000,-0.061,0.05712,1.00878,0.07958,28.32
$IMU,26837.103,-1.037,0.000,-0.183,0.05273,1.00830,0.08056,28.32
$IMU,26837.105,-1.037,-0.061,-0.183,0.05419,1.00732,0.07861,28.32
$MAG,26837.107,-0.430,-0.508,-0.667,27.6
$IMU,26837.107,-1.037,-0.061,-0.122,0.05517,1.00830,0.08251,28.32
$VBAT,26837.107,4.135
$IMU,26837.110,-0.976,0.061,0.000,0.05517,1.00927,0.08300,28.32
$IMU,26837.112,-0.915,-0.061,0.000,0.05712,1.00830,0.07910,28.32
$IMU,26837.114,-0.854,-0.122,-0.122,0.05566,1.00683,0.08398,28.32
$MAG,26837.117,-0.429,-0.511,-0.664,27.6
$IMU,26837.117,-0.915,-0.122,0.000,0.05615,1.00488,0.08300,28.32
$IMU,26837.119,-0.793,0.000,-0.061,0.05859,1.00781,0.08496,28.32
$IMU,26837.122,-0.732,-0.183,-0.122,0.05859,1.00732,0.08642,28.32
$IMU,26837.124,-0.732,-0.183,-0.183,0.05615,1.00830,0.08642,28.32
$IMU,26837.126,-0.610,-0.061,-0.122,0.05517,1.00976,0.08398,28.32
$MAG,26837.127,-0.435,-0.507,-0.666,27.6
$IMU,26837.129,-0.549,-0.122,-0.305,0.05615,1.01074,0.08642,28.32
$IMU,26837.131,-0.427,0.000,-0.244,0.05566,1.00781,0.08691,28.37
$IMU,26837.133,-0.305,0.061,-0.183,0.05615,1.00732,0.08593,28.37
$IMU,26837.136,-0.244,-0.122,-0.244,0.05761,1.01025,0.08837,28.37
$MAG,26837.138,-0.430,-0.498,-0.673,27.6
$IMU,26837.138,-0.244,-0.061,-0.183,0.05517,1.01171,0.08593,28.37
$IMU,26837.140,-0.183,0.000,-0.122,0.05664,1.01074,0.08593,28.37
$IMU,26837.143,-0.122,-0.061,-0.183,0.06054,1.01074,0.08349,28.37
$IMU,26837.145,-0.183,0.000,-0.305,0.05859,1.01220,0.08740,28.37
$IMU,26837.147,-0.244,0.061,-0.244,0.05810,1.01025,0.08691,28.37
$MAG,26837.148,-0.430,-0.511,-0.666,27.6
$IMU,26837.150,-0.122,0.000,-0.244,0.05908,1.01025,0.08447,28.41
$IMU,26837.152,-0.183,-0.122,-0.305,0.05712,1.01025,0.08398,28.41
$IMU,26837.154,-0.183,-0.122,-0.183,0.05712,1.00976,0.08544,28.41
$IMU,26837.157,-0.122,-0.122,-0.305,0.05664,1.01171,0.08300,28.41
$MAG,26837.158,-0.432,-0.501,-0.667,27.6
$IMU,26837.159,-0.183,-0.061,-0.305,0.05859,1.01269,0.08544,28.41
$IMU,26837.161,-0.061,-0.061,-0.244,0.05908,1.01220,0.08544,28.41
$IMU,26837.164,0.061,-0.122,-0.305,0.05761,1.00927,0.08544,28.41
$IMU,26837.166,0.061,-0.122,-0.244,0.05908,1.00292,0.08154,28.41
$MAG,26837.168,-0.439,-0.502,-0.676,27.7
$IMU,26837.168,0.183,-0.183,-0.305,0.05761,1.00683,0.08300,28.38
$IMU,26837.171,0.061,-0.122,-0.305,0.05664,1.00927,0.08300,28.38
$BARO,26837.172,86862.36,28.49
$IMU,26837.173,0.000,-0.061,-0.244,0.05664,1.00732,0.07958,28.38
$IMU,26837.175,0.000,-0.061,-0.305,0.05859,1.00732,0.07958,28.38
$MAG,26837.178,-0.430,-0.508,-0.675,27.5
$IMU,26837.178,0.000,-0.061,-0.366,0.05566,1.00439,0.08105,28.38
$IMU,26837.180,0.061,-0.244,-0.427,0.05712,1.00634,0.08105,28.38
$IMU,26837.183,0.000,-0.183,-0.427,0.05761,1.00634,0.08056,28.38
$IMU,26837.185,-0.122,-0.061,-0.305,0.05371,1.00683,0.08251,28.38
$IMU,26837.187,-0.305,-0.061,-0.244,0.05175,1.00976,0.07910,28.38
$MAG,26837.188,-0.429,-0.508,-0.667,27.6
$IMU,26837.190,-0.305,-0.061,-0.183,0.05664,1.00976,0.08056,28.38
$IMU,26837.192,-0.366,-0.122,-0.183,0.05468,1.00927,0.08251,28.38
$IMU,26837.194,-0.488,-0.122,-0.244,0.05273,1.01123,0.08105,28.38
$IMU,26837.197,-0.549,-0.061,-0.305,0.05371,1.00732,0.08154,28.38
$MAG,26837.198,-0.429,-0.514,-0.663,27.5
$IMU,26837.199,-0.610,-0.122,-0.244,0.05615,1.00634,0.08203,28.38
$IMU,26837.201,-0.793,-0.061,-0.244,0.05664,1.01074,0.08349,28.38
$IMU,26837.204,-0.732,-0.122,-0.244,0.05322,1.00927,0.08203,28.38
$IMU,26837.206,-0.793,0.000,-0.122,0.05468,1.01513,0.08251,28.37
$MAG,26837.208,-0.423,-0.511,-0.664,27.6
$IMU,26837.208,-0.732,-0.122,-0.122,0.05517,1.00976,0.08496,28.37
$IMU,26837.211,-0.732,0.000,-0.183,0.05517,1.01171,0.08251,28.37
$IMU,26837.213,-0.671,0.000,-0.244,0.05761,1.01269,0.08251,28.37
$IMU,26837.215,-0.671,-0.061,-0.244,0.05517,1.01025,0.08593,28.37
$MAG,26837.218,-0.438,-0.504,-0.673,27.6
$IMU,26837.218,-0.671,0.000,-0.305,0.05468,1.00781,0.08398,28.37
$IMU,26837.220,-0.488,-0.122,-0.305,0.05664,1.01025,0.08691,28.37
$IMU,26837.222,-0.366,-0.244,-0.244,0.05273,1.00830,0.08691,28.37
$IMU,26837.225,-0.305,-0.061,-0.244,0.05224,1.00781,0.08398,28.36
$IMU,26837.227,-0.244,-0.061,-0.122,0.05175,1.01025,0.08691,28.36
$MAG,26837.228,-0.441,-0.508,-0.672,27.3
$IMU,26837.229,-0.122,0.000,-0.244,0.05468,1.01074,0.08642,28.36
$IMU,26837.232,-0.122,-0.061,-0.244,0.05566,1.01220,0.08837,28.36
$IMU,26837.234,-0.183,-0.061,-0.305,0.05566,1.01074,0.08593,28.36
$IMU,26837.236,-0.061,-0.061,-0.366,0.05322,1.00878,0.08349,28.36
$MAG,26837.238,-0.433,-0.499,-0.667,27.7
$IMU,26837.239,-0.061,-0.061,-0.366,0.05322,1.00537,0.08349,28.36
$IMU,26837.241,-0.061,0.000,-0.244,0.05224,1.00927,0.08203,28.36
$IMU,26837.244,0.000,-0.122,-0.122,0.05371,1.01123,0.08544,28.37
$IMU,26837.246,0.000,-0.244,-0.122,0.05468,1.01074,0.08349,28.37
$IMU,26837.248,-0.061,-0.122,-0.183,0.05566,1.00878,0.08154,28.37
$MAG,26837.249,-0.427,-0.505,-0.669,27.6
$IMU,26837.251,-0.183,0.061,-0.244,0.05566,1.00927,0.08300,28.37
$IMU,26837.253,-0.244,-0.061,-0.305,0.05712,1.01269,0.08349,28.37
$IMU,26837.255,-0.183,-0.122,-0.305,0.05322,1.01220,0.08300,28.37
$IMU,26837.258,-0.244,-0.122,-0.183,0.05517,1.00732,0.08349,28.37
$MAG,26837.259,-0.438,-0.504,-0.669,27.6
$IMU,26837.260,-0.366,-0.061,-0.122,0.05419,1.00634,0.08496,28.37
$IMU,26837.262,-0.366,0.000,-0.061,0.05419,1.00830,0.08349,28.34
$IMU,26837.265,-0.427,0.000,-0.122,0.05859,1.01318,0.08105,28.34
$IMU,26837.267,-0.366,-0.122,-0.183,0.05517,1.01220,0.08056,28.34
$MAG,26837.269,-0.427,-0.498,-0.667,27.6
$IMU,26837.269,-0.427,0.000,-0.305,0.05761,1.01123,0.08447,28.34
$IMU,26837.272,-0.366,0.000,-0.305,0.05224,1.00878,0.08593,28.34
$BARO,26837.274,86858.72,28.49
$IMU,26837.274,-0.366,0.000,-0.244,0.05468,1.00634,0.08544,28.34
$IMU,26837.276,-0.305,0.061,-0.183,0.05517,1.00830,0.08642,28.34
$MAG,26837.279,-0.430,-0.507,-0.666,27.6
$IMU,26837.279,-0.305,0.061,-0.061,0.05322,1.00781,0.08447,28.34
$IMU,26837.281,-0.305,-0.061,-0.122,0.06054,1.00781,0.08593,28.35
$IMU,26837.283,-0.305,-0.122,-0.183,0.05712,1.00976,0.08398,28.35
$IMU,26837.286,-0.244,-0.122,-0.183,0.05615,1.00927,0.08593,28.35
$IMU,26837.288,-0.305,-0.061,-0.305,0.05615,1.01123,0.08300,28.35
$MAG,26837.289,-0.429,-0.504,-0.672,27.6
$IMU,26837.290,-0.305,-0.122,-0.244,0.05371,1.00732,0.08544,28.35
$IMU,26837.293,-0.244,-0.061,-0.122,0.05419,1.00878,0.08300,28.35
$IMU,26837.295,-0.244,-0.244,-0.183,0.05371,1.00878,0.08154,28.35
$IMU,26837.297,-0.305,-0.122,-0.122,0.05371,1.01171,0.08300,28.35
$MAG,26837.299,-0.436,-0.507,-0.672,27.6
$IMU,26837.300,-0.305,-0.122,-0.122,0.05761,1.00976,0.08154,28.34
$IMU,26837.302,-0.427,0.061,-0.244,0.05664,1.00927,0.08154,28.34
$IMU,26837.305,-0.427,0.000,-0.244,0.05664,1.00830,0.08544,28.34
$IMU,26837.307,-0.488,-0.061,-0.305,0.05371,1.01318,0.08544,28.34
$MAG,26837.309,-0.429,-0.505,-0.675,27.6
$IMU,26837.309,-0.488,-0.122,-0.244,0.05419,1.00927,0.08544,28.34
$IMU,26837.312,-0.427,-0.061,-0.244,0.05273,1.00683,0.08447,28.34
$IMU,26837.314,-0.549,0.000,-0.183,0.05566,1.00683,0.08642,28.34
$IMU,26837.316,-0.488,0.000,-0.183,0.05126,1.01074,0.08593,28.34
$MAG,26837.319,-0.427,-0.493,-0.667,27.6
$IMU,26837.319,-0.427,0.000,-0.183,0.05322,1.01269,0.08691,28.39
$IMU,26837.321,-0.366,-0.305,-0.244,0.05468,1.00976,0.08496,28.39
$IMU,26837.323,-0.488,-0.061,-0.183,0.05810,1.00927,0.08642,28.39
$IMU,26837.326,-0.488,0.061,-0.305,0.05566,1.00830,0.08593,28.39
$IMU,26837.328,-0.488,0.000,-0.244,0.05566,1.00781,0.08447,28.39
$MAG,26837.329,-0.442,-0.501,-0.672,27.5
$IMU,26837.330,-0.549,0.000,-0.122,0.05859,1.00537,0.08642,28.39
$IMU,26837.333,-0.427,-0.122,-0.183,0.05908,1.00781,0.08642,28.39
$IMU,26837.335,-0.366,-0.183,-0.183,0.05664,1.00781,0.08496,28.39
$IMU,26837.337,-0.427,-0.061,-0.305,0.05761,1.00781,0.08642,28.41
$MAG,26837.339,-0.430,-0.507,-0.669,27.6
$IMU,26837.340,-0.366,0.000,-0.305,0.06103,1.01025,0.08642,28.41
$IMU,26837.342,-0.305,0.000,-0.244,0.05615,1.00732,0.08349,28.41
$IMU,26837.344,-0.183,-0.122,-0.305,0.05566,1.00732,0.08642,28.41
$IMU,26837.347,0.000,-0.122,-0.244,0.05664,1.00683,0.08398,28.41
$IMU,26837.349,0.061,-0.061,-0.244,0.06054,1.00830,0.08447,28.41
$MAG,26837.350,-0.429,-0.502,-0.670,27.5
$IMU,26837.351,0.122,-0.183,-0.427,0.05517,1.00732,0.08349,28.41
$IMU,26837.354,0.122,0.000,-0.366,0.05859,1.00439,0.08349,28.41
$IMU,26837.356,0.183,0.000,-0.427,0.05957,1.00683,0.08203,28.39
$IMU,26837.358,0.244,-0.183,-0.427,0.05761,1.00537,0.08251,28.39
$MAG,26837.360,-0.430,-0.505,-0.675,27.5
$IMU,26837.361,0.305,-0.305,-0.427,0.05566,1.00683,0.08300,28.39
$IMU,26837.363,0.183,-0.061,-0.427,0.05566,1.00683,0.08203,28.39
$IMU,26837.366,0.000,0.000,-0.488,0.05468,1.00976,0.08105,28.39
$IMU,26837.368,-0.122,0.000,-0.427,0.05615,1.01123,0.07958,28.39
$MAG,26837.370,-0.433,-0.517,-0.673,27.6
$IMU,26837.370,-0.122,-0.061,-0.366,0.05371,1.01025,0.08154,28.39
$IMU,26837.373,-0.183,-0.183,-0.427,0.05908,1.00976,0.07861,28.39
$BARO,26837.375,86868.60,28.49
$IMU,26837.375,-0.305,-0.061,-0.366,0.05566,1.00976,0.07958,28.38
$IMU,26837.377,-0.427,0.000,-0.366,0.05664,1.01123,0.08300,28.38
$MAG,26837.380,-0.430,-0.502,-0.672,27.6
$IMU,26837.380,-0.549,0.061,-0.305,0.05322,1.01367,0.08203,28.38
$IMU,26837.382,-0.610,0.000,-0.305,0.05273,1.01220,0.08300,28.38
$IMU,26837.384,-0.549,-0.183,-0.244,0.05810,1.01171,0.08251,28.38
$IMU,26837.387,-0.549,-0.122,-0.183,0.05664,1.01269,0.08447,28.38
$IMU,26837.389,-0.732,0.061,-0.122,0.05371,1.01123,0.08154,28.38
$MAG,26837.390,-0.429,-0.507,-0.669,27.6
$IMU,26837.391,-0.610,-0.061,-0.122,0.05566,1.00976,0.08300,28.38
$IMU,26837.394,-0.549,-0.061,-0.183,0.05712,1.00927,0.08203,28.37
$IMU,26837.396,-0.488,0.061,-0.183,0.05371,1.00830,0.08349,28.37
$IMU,26837.398,-0.366,-0.122,-0.183,0.05322,1.01025,0.08349,28.37
$MAG,26837.400,-0.426,-0.504,-0.675,27.5
$IMU,26837.401,-0.244,-0.183,-0.122,0.05566,1.01074,0.08398,28.37
$IMU,26837.403,-0.122,-0.183,-0.122,0.05273,1.01123,0.08398,28.37
$IMU,26837.405,-0.061,0.000,-0.183,0.05664,1.00732,0.08496,28.37
$IMU,26837.408,0.061,-0.061,-0.183,0.05664,1.00976,0.08544,28.37
$MAG,26837.410,-0.430,-0.508,-0.667,27.5
$IMU,26837.410,0.061,-0.122,-0.122,0.05566,1.00537,0.08398,28.37
$IMU,26837.412,0.061,-0.183,-0.122,0.05371,1.00927,0.08300,28.37
$IMU,26837.415,0.000,-0.061,-0.061,0.05664,1.01025,0.08251,28.37
$IMU,26837.417,-0.122,0.061,-0.183,0.05615,1.00878,0.08349,28.37
$IMU,26837.419,-0.244,0.061,-0.061,0.05517,1.00830,0.08349,28.37
$MAG,26837.420,-0.433,-0.505,-0.670,27.5
$HUM,26837.422,34.1,28.9
$IMU,26837.422,-0.183,-0.183,-0.122,0.05419,1.00585,0.08447,28.37
$IMU,26837.424,-0.244,-0.061,-0.061,0.05517,1.00781,0.07861,28.37
$IMU,26837.426,-0.366,-0.122,0.000,0.05371,1.00927,0.07763,28.37
$IMU,26837.429,-0.488,0.000,-0.122,0.05615,1.00634,0.08349,28.37
$MAG,26837.430,-0.436,-0.498,-0.675,27.5
$IMU,26837.431,-0.488,-0.061,-0.122,0.05761,1.00927,0.08056,28.37
$IMU,26837.434,-0.610,-0.122,-0.122,0.05517,1.00683,0.08300,28.37
$IMU,26837.436,-0.671,0.000,-0.122,0.05566,1.00927,0.08349,28.37
$IMU,26837.438,-0.732,0.000,-0.061,0.05615,1.00683,0.08447,28.37
$MAG,26837.440,-0.435,-0.513,-0.672,27.6
$IMU,26837.441,-0.732,-0.122,-0.061,0.05810,1.00927,0.08593,28.37
$IMU,26837.443,-0.793,0.000,-0.061,0.05712,1.00634,0.08642,28.37
$IMU,26837.445,-0.793,0.000,-0.061,0.05664,1.00927,0.08691,28.37
$IMU,26837.448,-0.610,-0.061,-0.122,0.05908,1.00634,0.08447,28.37
$MAG,26837.450,-0.429,-0.510,-0.669,27.5
$IMU,26837.450,-0.549,-0.122,-0.122,0.05419,1.00976,0.08544,28.34
$IMU,26837.452,-0.305,-0.061,-0.122,0.05419,1.00927,0.08642,28.34
$IMU,26837.455,-0.122,0.000,-0.183,0.05664,1.01025,0.08691,28.34
$IMU,26837.457,0.000,0.000,-0.122,0.05712,1.01025,0.08789,28.34
$IMU,26837.459,0.183,-0.122,-0.183,0.05615,1.01464,0.08789,28.34
$MAG,26837.461,-0.438,-0.499,-0.663,27.6
$IMU,26837.462,0.305,-0.244,-0.122,0.05957,1.01123,0.08642,28.34
$IMU,26837.464,0.305,-0.183,-0.183,0.05810,1.00830,0.08642,28.34
$IMU,26837.466,0.305,-0.061,-0.122,0.05761,1.01074,0.08544,28.34
$IMU,26837.469,0.183,-0.061,-0.122,0.05615,1.00976,0.08349,28.36
$MAG,26837.471,-0.427,-0.508,-0.678,27.6
$IMU,26837.471,0.244,0.000,-0.183,0.05273,1.01074,0.08544,28.36
$IMU,26837.473,0.305,-0.183,-0.122,0.05322,1.00634,0.08447,28.36
$BARO,26837.476,86874.88,28.49
$IMU,26837.476,0.305,-0.244,-0.061,0.05761,1.00634,0.08105,28.36
$IMU,26837.478,0.305,-0.305,0.000,0.05371,1.00976,0.08349,28.36
$IMU,26837.480,0.244,-0.061,0.061,0.05517,1.01123,0.08154,28.36
$MAG,26837.481,-0.430,-0.504,-0.672,27.3
$IMU,26837.483,0.244,-0.122,0.061,0.05810,1.01171,0.08105,28.36
$IMU,26837.485,0.244,-0.061,0.000,0.05566,1.01074,0.08056,28.36
$IMU,26837.487,0.122,-0.061,0.000,0.05517,1.01318,0.08154,28.35
$IMU,26837.490,-0.244,0.183,-0.061,0.05810,1.00781,0.08203,28.35
$MAG,26837.491,-0.439,-0.498,-0.667,27.6
$IMU,26837.492,-0.244,0.122,-0.061,0.05615,1.00732,0.08203,28.35
$IMU,26837.495,-0.366,0.122,0.000,0.05468,1.00878,0.08154,28.35
$IMU,26837.497,-0.366,-0.061,0.061,0.05615,1.00927,0.08056,28.35
$IMU,26837.499,-0.488,-0.122,0.061,0.05859,1.00927,0.08056,28.35
$MAG,26837.501,-0.438,-0.507,-0.672,27.5
$IMU,26837.502,-0.610,0.000,0.000,0.05810,1.00781,0.08007,28.35
$IMU,26837.504,-0.549,0.061,0.061,0.05761,1.00927,0.08154,28.35
$IMU,26837.506,-0.549,-0.061,0.000,0.05712,1.00927,0.08251,28.36
$IMU,26837.509,-0.366,-0.244,0.061,0.05908,1.01025,0.08349,28.36
$MAG,26837.511,-0.427,-0.499,-0.672,27.6
$IMU,26837.511,-0.488,-0.183,0.122,0.05957,1.00585,0.08447,28.36
$IMU,26837.513,-0.488,0.000,0.061,0.05957,1.00585,0.08154,28.36
$IMU,26837.516,-0.488,-0.061,0.122,0.05664,1.00830,0.08251,28.36
$IMU,26837.518,-0.427,0.000,0.061,0.05761,1.00683,0.08203,28.36
$IMU,26837.520,-0.366,-0.122,0.000,0.05761,1.00976,0.08447,28.36
$MAG,26837.521,-0.435,-0.505,-0.672,27.6
$IMU,26837.523,-0.305,-0.244,0.000,0.05712,1.00732,0.08447,28.36
$IMU,26837.525,-0.366,-0.122,-0.061,0.05859,1.01269,0.08300,28.33
$IMU,26837.527,-0.366,-0.183,-0.061,0.05517,1.01123,0.08154,28.33
$IMU,26837.530,-0.305,-0.122,-0.061,0.05566,1.01074,0.08496,28.33
$MAG,26837.531,-0.435,-0.505,-0.672,27.6
$IMU,26837.532,-0.366,0.061,0.000,0.05664,1.00634,0.08398,28.33
$IMU,26837.534,-0.183,-0.183,0.000,0.05859,1.01025,0.08447,28.33
$IMU,26837.537,-0.183,-0.183,-0.122,0.05615,1.01171,0.08398,28.33
$IMU,26837.539,-0.122,-0.122,-0.183,0.05468,1.01367,0.08447,28.33
$MAG,26837.541,-0.435,-0.504,-0.673,27.6
$IMU,26837.541,-0.122,0.000,-0.183,0.05566,1.01269,0.08740,28.33
$IMU,26837.544,-0.305,0.000,-0.244,0.05322,1.01171,0.08593,28.35
$IMU,26837.546,-0.183,0.000,-0.183,0.05273,1.01025,0.08544,28.35
$IMU,26837.548,-0.244,-0.061,-0.061,0.05517,1.00976,0.08544,28.35
$MAG,26837.551,-0.427,-0.507,-0.667,27.6
$IMU,26837.551,-0.244,-0.122,0.000,0.05468,1.00927,0.08398,28.35
$IMU,26837.553,-0.305,0.061,-0.061,0.05517,1.01269,0.08447,28.35
$IMU,26837.556,-0.427,0.183,-0.061,0.05371,1.01171,0.08789,28.35
$IMU,26837.558,-0.244,-0.122,-0.122,0.05078,1.01074,0.08691,28.35
$IMU,26837.560,-0.244,0.000,-0.183,0.05419,1.01269,0.08593,28.35
$MAG,26837.561,-0.438,-0.508,-0.667,27.6
$IMU,26837.563,-0.122,0.000,-0.122,0.05566,1.01367,0.08300,28.38
$IMU,26837.565,-0.122,0.000,0.000,0.05712,1.01074,0.08251,28.38
$IMU,26837.567,-0.061,0.061,0.061,0.05615,1.00976,0.08496,28.38
$IMU,26837.570,0.000,0.122,0.061,0.05419,1.00927,0.08740,28.38
$MAG,26837.572,-0.430,-0.510,-0.676,27.6
$IMU,26837.572,0.000,-0.122,0.000,0.05615,1.01074,0.08691,28.38
$IMU,26837.574,0.122,-0.305,-0.061,0.05371,1.00634,0.08642,28.38
$IMU,26837.577,0.000,-0.061,-0.122,0.05273,1.00927,0.08544,28.38
$BARO,26837.578,86862.40,28.49
$IMU,26837.579,-0.183,0.000,-0.122,0.05468,1.01123,0.08447,28.38
$IMU,26837.581,-0.122,-0.183,-0.061,0.05371,1.00781,0.08251,28.39
$MAG,26837.582,-0.426,-0.499,-0.670,27.6
$IMU,26837.584,-0.122,0.000,0.122,0.05419,1.01171,0.08544,28.39
$IMU,26837.586,-0.061,-0.122,0.183,0.05761,1.00830,0.08154,28.39
$IMU,26837.588,-0.122,-0.061,0.122,0.05712,1.00976,0.08203,28.39
$IMU,26837.591,-0.061,0.000,0.000,0.05810,1.00732,0.08056,28.39
$MAG,26837.592,-0.433,-0.502,-0.661,27.6
$IMU,26837.593,-0.122,0.000,-0.061,0.05224,1.01025,0.08496,28.39
$IMU,26837.595,-0.122,-0.061,-0.122,0.05078,1.01220,0.08349,28.39
$IMU,26837.598,0.000,-0.183,-0.061,0.05224,1.01416,0.08105,28.39
$IMU,26837.600,-0.061,-0.305,0.061,0.05322,1.01074,0.08154,28.34
$MAG,26837.602,-0.427,-0.499,-0.672,27.6
$IMU,26837.602,-0.305,0.000,0.183,0.05078,1.01074,0.08300,28.34
$IMU,26837.605,-0.366,-0.061,0.244,0.05517,1.00781,0.08544,28.34
$IMU,26837.607,-0.488,-0.061,0.122,0.05712,1.01074,0.08447,28.34
$IMU,26837.609,-0.549,-0.061,0.183,0.05761,1.01269,0.08349,28.34
$MAG,26837.612,-0.436,-0.510,-0.681,27.5
$IMU,26837.612,-0.488,-0.244,0.122,0.05761,1.00781,0.08203,28.34
$IMU,26837.614,-0.549,-0.183,0.183,0.05468,1.00878,0.08447,28.34
$IMU,26837.617,-0.427,-0.122,0.183,0.05810,1.00781,0.08349,28.34
$IMU,26837.619,-0.549,0.000,0.183,0.05712,1.00830,0.08496,28.41
$IMU,26837.621,-0.366,-0.183,0.183,0.05761,1.00878,0.08447,28.41
$MAG,26837.622,-0.433,-0.502,-0.679,27.6
$IMU,26837.624,-0.244,-0.061,0.244,0.05322,1.00732,0.08251,28.41
$IMU,26837.626,-0.183,-0.061,0.183,0.05810,1.00927,0.08496,28.41
$IMU,26837.628,-0.061,0.061,0.061,0.06054,1.00830,0.08349,28.41
$IMU,26837.631,-0.122,0.061,0.000,0.05859,1.00683,0.08398,28.41
$MAG,26837.632,-0.430,-0.502,-0.669,27.5
$IMU,26837.633,-0.061,0.000,0.000,0.05664,1.00439,0.08496,28.41
$IMU,26837.635,0.061,-0.122,0.000,0.05712,1.00439,0.08398,28.41
$IMU,26837.638,0.122,-0.061,-0.061,0.05517,1.00830,0.08203,28.38
$IMU,26837.640,0.183,-0.244,0.000,0.05664,1.00830,0.07910,28.38
$IMU,26837.642,0.244,-0.183,0.000,0.05664,1.00683,0.08154,28.38
$MAG,26837.642,-0.426,-0.502,-0.667,27.6
$IMU,26837.645,0.061,-0.061,0.000,0.06103,1.00878,0.08105,28.38
$IMU,26837.647,0.000,0.000,-0.061,0.05761,1.01123,0.07812,28.38
$IMU,26837.649,0.000,-0.061,-0.122,0.05468,1.00878,0.08105,28.38
$MAG,26837.652,-0.427,-0.505,-0.672,27.6
$IMU,26837.652,0.061,-0.122,0.000,0.05566,1.01123,0.08203,28.38
$IMU,26837.654,-0.122,0.061,0.000,0.05712,1.01123,0.08056,28.38
$IMU,26837.656,-0.244,0.061,0.061,0.05761,1.01269,0.08056,28.35
$IMU,26837.659,-0.183,-0.061,0.061,0.05664,1.00927,0.08007,28.35
$IMU,26837.661,-0.366,0.122,0.061,0.05419,1.01171,0.08105,28.35
$MAG,26837.662,-0.442,-0.504,-0.664,27.6
$IMU,26837.663,-0.305,-0.061,0.000,0.05664,1.01269,0.08251,28.35
$IMU,26837.666,-0.305,-0.061,-0.061,0.05419,1.01171,0.08544,28.35
$IMU,26837.668,-0.427,0.061,-0.061,0.05468,1.01318,0.08447,28.35
$IMU,26837.670,-0.427,0.000,0.061,0.05175,1.01318,0.08593,28.35
$MAG,26837.672,-0.430,-0.505,-0.672,27.6
$IMU,26837.673,-0.427,0.061,0.122,0.05322,1.01074,0.08251,28.35
$IMU,26837.675,-0.427,0.000,0.061,0.05419,1.01416,0.08496,28.37
$IMU,26837.678,-0.305,0.000,0.122,0.05322,1.01074,0.08251,28.37
$BARO,26837.679,86864.16,28.49
$IMU,26837.680,-0.183,-0.183,0.122,0.05224,1.01074,0.08544,28.37
$IMU,26837.682,-0.061,-0.061,0.122,0.05566,1.01074,0.08593,28.37
$MAG,26837.683,-0.439,-0.519,-0.675,27.5
$IMU,26837.685,-0.061,-0.183,0.061,0.05419,1.01123,0.08398,28.37
$IMU,26837.687,-0.122,-0.061,0.122,0.05371,1.00585,0.08349,28.37
$IMU,26837.689,0.000,-0.122,0.122,0.05126,1.00878,0.08496,28.37
$IMU,26837.692,0.061,-0.122,0.244,0.05322,1.00976,0.08496,28.37
$MAG,26837.693,-0.427,-0.502,-0.675,27.5
$IMU,26837.694,0.061,-0.061,0.183,0.05615,1.00878,0.08203,28.37
$IMU,26837.696,-0.122,0.183,0.183,0.05761,1.00878,0.08447,28.37
$IMU,26837.699,-0.061,-0.061,0.122,0.05712,1.00927,0.08300,28.37
$IMU,26837.701,0.000,-0.244,0.183,0.05664,1.00976,0.08496,28.37
$MAG,26837.703,-0.429,-0.504,-0.672,27.6
$IMU,26837.703,-0.122,0.000,0.183,0.05664,1.00830,0.08447,28.37
$IMU,26837.706,-0.244,-0.122,0.122,0.05615,1.00976,0.08398,28.37
$IMU,26837.708,-0.366,-0.122,0.122,0.05664,1.01025,0.08300,28.37
$IMU,26837.710,-0.427,-0.061,0.061,0.05810,1.00927,0.08349,28.37
$MAG,26837.713,-0.427,-0.507,-0.667,27.6
$IMU,26837.713,-0.427,-0.061,0.183,0.05761,1.00976,0.08203,28.39
$IMU,26837.715,-0.427,0.061,0.122,0.05859,1.00976,0.08447,28.39
$IMU,26837.717,-0.366,-0.122,0.122,0.06005,1.00585,0.08056,28.39
$IMU,26837.720,-0.305,-0.244,0.061,0.05810,1.00537,0.08251,28.39
$IMU,26837.722,-0.305,-0.061,0.122,0.05859,1.00585,0.08154,28.39
$MAG,26837.723,-0.429,-0.505,-0.670,27.6
$IMU,26837.724,-0.366,0.122,0.122,0.05761,1.00488,0.08349,28.39
$IMU,26837.727,-0.366,0.000,0.122,0.05712,1.00927,0.08349,28.39
$IMU,26837.729,-0.305,-0.122,0.122,0.05566,1.00830,0.08642,28.39
$IMU,26837.731,-0.183,-0.122,0.061,0.05761,1.00878,0.08398,28.40
$MAG,26837.733,-0.436,-0.501,-0.678,27.6
$IMU,26837.734,-0.244,-0.061,0.000,0.05761,1.01025,0.08593,28.40
$IMU,26837.736,-0.183,0.061,-0.061,0.05859,1.01025,0.08447,28.40
$IMU,26837.739,-0.244,0.183,0.000,0.05712,1.01074,0.08251,28.40
$IMU,26837.741,-0.183,0.061,-0.061,0.05517,1.00927,0.08349,28.40
$IMU,26837.743,-0.061,-0.061,-0.061,0.05859,1.01123,0.08203,28.40
$MAG,26837.743,-0.424,-0.507,-0.670,27.6
$IMU,26837.746,0.000,-0.122,0.000,0.05908,1.01123,0.08349,28.40
$IMU,26837.748,-0.122,0.061,0.000,0.05761,1.01074,0.08300,28.40
$IMU,26837.750,-0.061,-0.061,0.000,0.05468,1.01123,0.08251,28.30
$MAG,26837.753,-0.430,-0.505,-0.673,27.6
$IMU,26837.753,-0.061,-0.061,0.061,0.05615,1.01269,0.08642,28.30
$IMU,26837.755,0.000,-0.122,0.061,0.05859,1.01220,0.08398,28.30
$IMU,26837.757,0.000,-0.183,0.122,0.05371,1.01025,0.08544,28.30
$IMU,26837.760,-0.061,-0.183,0.061,0.05566,1.01074,0.08593,28.30
$IMU,26837.762,0.000,-0.122,0.000,0.05615,1.00976,0.08154,28.30
$MAG,26837.763,-0.430,-0.504,-0.669,27.6
$IMU,26837.764,-0.061,0.061,0.122,0.05566,1.00927,0.08398,28.30
$IMU,26837.767,0.000,-0.122,0.183,0.05566,1.01367,0.08496,28.30
$IMU,26837.769,0.061,-0.183,0.122,0.05566,1.01416,0.08300,28.35
$IMU,26837.771,0.061,-0.061,0.122,0.05664,1.01123,0.08203,28.35
$MAG,26837.773,-0.436,-0.499,-0.675,27.6
$IMU,26837.774,0.061,0.000,0.183,0.05468,1.00976,0.08154,28.35
$IMU,26837.776,0.000,0.183,0.244,0.05371,1.01123,0.08398,28.35
$IMU,26837.778,0.061,0.000,0.183,0.05664,1.00927,0.08251,28.35
$BARO,26837.781,86867.38,28.49
$IMU,26837.781,0.061,0.061,0.244,0.05517,1.00927,0.08203,28.35
$MAG,26837.783,-0.424,-0.504,-0.678,27.6
$IMU,26837.783,0.000,0.000,0.305,0.05957,1.00634,0.08544,28.35
$IMU,26837.785,0.000,0.000,0.305,0.06103,1.01123,0.08447,28.35
$IMU,26837.788,-0.122,0.061,0.305,0.05712,1.01025,0.08349,28.39
$IMU,26837.790,-0.122,0.061,0.244,0.05859,1.00781,0.08154,28.39
$IMU,26837.792,-0.061,-0.061,0.244,0.05859,1.01025,0.08251,28.39
$MAG,26837.794,-0.433,-0.505,-0.672,27.6
$IMU,26837.795,-0.061,-0.244,0.244,0.05810,1.00878,0.08154,28.39
$IMU,26837.797,-0.061,-0.122,0.244,0.05419,1.00781,0.07763,28.39
$IMU,26837.799,-0.244,-0.061,0.305,0.05761,1.00830,0.08154,28.39
$IMU,26837.802,-0.366,0.122,0.305,0.05859,1.00830,0.08056,28.39
$MAG,26837.804,-0.435,-0.510,-0.670,27.6
$IMU,26837.804,-0.183,-0.183,0.305,0.05517,1.01074,0.08007,28.39
$IMU,26837.807,-0.244,-0.183,0.305,0.05468,1.00878,0.08105,28.36
$IMU,26837.809,-0.305,0.000,0.305,0.05810,1.00976,0.08300,28.36
$IMU,26837.811,-0.366,0.000,0.183,0.05908,1.01025,0.08007,28.36
$MAG,26837.814,-0.435,-0.498,-0.667,27.6
$IMU,26837.814,-0.366,-0.122,0.183,0.05566,1.00830,0.08007,28.36
$IMU,26837.816,-0.427,0.000,0.122,0.05810,1.00976,0.08154,28.36
$IMU,26837.818,-0.427,-0.061,0.305,0.06005,1.00585,0.08398,28.36
$IMU,26837.821,-0.549,-0.061,0.305,0.06054,1.00976,0.08447,28.36
$IMU,26837.823,-0.549,0.061,0.366,0.06054,1.00537,0.08496,28.36
$MAG,26837.824,-0.433,-0.499,-0.661,27.5
$IMU,26837.825,-0.671,0.000,0.244,0.05810,1.00927,0.08447,28.37
$IMU,26837.828,-0.610,-0.122,0.183,0.06005,1.01025,0.08544,28.37
$IMU,26837.830,-0.488,-0.244,0.183,0.06103,1.00830,0.08349,28.37
$IMU,26837.832,-0.488,-0.122,0.122,0.06152,1.00683,0.08642,28.37
$MAG,26837.834,-0.436,-0.501,-0.682,27.6
$IMU,26837.835,-0.488,-0.183,0.122,0.06054,1.00683,0.08886,28.37
$IMU,26837.837,-0.366,-0.061,0.183,0.06005,1.00537,0.08691,28.37
$IMU,26837.839,-0.366,0.061,0.122,0.06396,1.00634,0.08496,28.37
$IMU,26837.842,-0.122,-0.305,0.000,0.06298,1.01074,0.08447,28.37
$MAG,26837.844,-0.436,-0.513,-0.673,27.6
$IMU,26837.844,-0.061,-0.122,0.000,0.06005,1.00683,0.08447,28.36
$IMU,26837.846,0.061,-0.122,-0.061,0.06445,1.00634,0.08447,28.36
$IMU,26837.849,0.183,-0.244,-0.122,0.05957,1.00683,0.08496,28.36
$IMU,26837.851,0.061,0.244,-0.183,0.05810,1.00830,0.08642,28.36
$IMU,26837.853,0.244,-0.061,-0.122,0.05712,1.00927,0.08447,28.36
$MAG,26837.854,-0.429,-0.510,-0.664,27.6
$IMU,26837.856,0.305,-0.183,-0.122,0.06005,1.00732,0.08447,28.36
$IMU,26837.858,0.244,-0.061,-0.061,0.05712,1.00781,0.08203,28.36
$IMU,26837.860,0.183,-0.061,-0.061,0.05468,1.01025,0.08447,28.36
$IMU,26837.863,0.000,0.000,-0.122,0.05566,1.00976,0.08105,28.40
$MAG,26837.864,-0.430,-0.505,-0.672,27.6
$IMU,26837.865,-0.183,0.061,-0.183,0.05273,1.01074,0.08105,28.40
$IMU,26837.868,-0.183,0.000,-0.122,0.05468,1.01025,0.08251,28.40
$IMU,26837.870,-0.183,-0.122,-0.122,0.05566,1.00878,0.08007,28.40
$IMU,26837.872,-0.183,-0.061,0.061,0.05371,1.01025,0.08105,28.40
$MAG,26837.874,-0.430,-0.502,-0.670,27.6
$IMU,26837.875,-0.305,0.122,0.000,0.05615,1.00976,0.08056,28.40
$IMU,26837.877,-0.366,0.061,0.061,0.05566,1.00830,0.08496,28.40
$IMU,26837.879,-0.244,-0.122,0.000,0.05517,1.01123,0.08691,28.40
$BARO,26837.882,86866.43,28.49
$IMU,26837.882,-0.305,0.000,-0.122,0.05810,1.01416,0.08251,28.39
$MAG,26837.884,-0.442,-0.507,-0.681,27.6
$IMU,26837.884,-0.183,-0.061,-0.061,0.05566,1.01269,0.08300,28.39
$IMU,26837.886,-0.183,0.000,0.000,0.05615,1.01074,0.08544,28.39
$IMU,26837.889,-0.061,0.061,0.122,0.05615,1.01269,0.08251,28.39
$IMU,26837.891,0.000,-0.183,0.122,0.05468,1.01074,0.08056,28.39
$IMU,26837.893,0.061,-0.122,0.061,0.05566,1.01123,0.08398,28.39
$MAG,26837.894,-0.433,-0.508,-0.663,27.6
$IMU,26837.896,0.183,-0.061,0.061,0.05517,1.01367,0.08496,28.39
$IMU,26837.898,0.122,0.000,0.000,0.05273,1.01269,0.08154,28.39
$IMU,26837.900,0.183,-0.122,0.000,0.05126,1.01318,0.08447,28.41
$IMU,26837.903,0.183,0.061,0.061,0.05322,1.00732,0.08398,28.41
$MAG,26837.904,-0.429,-0.510,-0.669,27.6
$IMU,26837.905,0.122,-0.122,0.061,0.05468,1.00830,0.08203,28.41
$IMU,26837.907,0.183,-0.244,0.122,0.05468,1.00927,0.08056,28.41
$IMU,26837.910,0.122,-0.122,0.183,0.05615,1.00781,0.07812,28.41
$IMU,26837.912,0.000,-0.061,0.183,0.05371,1.00830,0.07910,28.41
$IMU,26837.914,-0.183,0.000,0.122,0.05615,1.00683,0.08007,28.41
$MAG,26837.915,-0.438,-0.504,-0.673,27.5
$IMU,26837.917,-0.244,0.000,0.061,0.05517,1.00732,0.08056,28.41
$IMU,26837.919,-0.305,-0.122,0.061,0.05517,1.00341,0.08349,28.38
$IMU,26837.921,-0.549,-0.122,0.122,0.05371,1.00830,0.07958,28.38
$IMU,26837.924,-0.671,-0.061,0.183,0.05664,1.00683,0.08300,28.38
$MAG,26837.925,-0.435,-0.505,-0.664,27.6
$IMU,26837.926,-0.793,0.000,0.244,0.06005,1.00537,0.08154,28.38
$IMU,26837.929,-0.976,0.000,0.305,0.06152,1.00830,0.08203,28.38
$IMU,26837.931,-0.915,-0.061,0.244,0.06005,1.00878,0.08398,28.38
$IMU,26837.933,-0.915,-0.122,0.244,0.06054,1.01074,0.08886,28.38
$MAG,26837.935,-0.429,-0.505,-0.666,27.6
$IMU,26837.936,-0.854,-0.183,0.061,0.05566,1.01123,0.08642,28.38
$IMU,26837.938,-0.854,-0.061,0.122,0.05517,1.00732,0.08691,28.36
$IMU,26837.940,-0.732,0.061,0.122,0.05859,1.00585,0.08837,28.36
$IMU,26837.943,-0.488,-0.122,0.244,0.05957,1.00976,0.09130,28.36
$IMU,26837.945,-0.366,0.000,0.244,0.05712,1.00830,0.08789,28.36
$MAG,26837.945,-0.430,-0.504,-0.678,27.6
$IMU,26837.947,-0.244,-0.183,0.244,0.06054,1.01025,0.08642,28.36
$IMU,26837.950,-0.061,-0.122,0.122,0.06201,1.00878,0.08593,28.36
$IMU,26837.952,0.000,0.000,0.000,0.06152,1.00585,0.08544,28.36
$IMU,26837.954,0.122,-0.122,0.000,0.05957,1.00732,0.08544,28.36
$MAG,26837.955,-0.429,-0.504,-0.664,27.6
$IMU,26837.957,0.122,-0.061,0.061,0.06445,1.00830,0.08447,28.37
$IMU,26837.959,0.183,-0.061,0.061,0.06152,1.00830,0.08007,28.37
$IMU,26837.961,0.305,0.061,0.000,0.06347,1.00927,0.08154,28.37
$IMU,26837.964,0.488,0.061,0.000,0.05908,1.00683,0.08203,28.37
$MAG,26837.965,-0.433,-0.502,-0.667,27.6
$IMU,26837.966,0.488,-0.061,-0.061,0.06347,1.00781,0.08007,28.37
$IMU,26837.968,0.549,-0.122,-0.122,0.06396,1.00732,0.07812,28.37
$IMU,26837.971,0.671,-0.244,-0.122,0.06445,1.00683,0.07910,28.37
$IMU,26837.973,0.488,-0.061,-0.122,0.06201,1.00878,0.07958,28.37
$MAG,26837.975,-0.442,-0.510,-0.673,27.5
$IMU,26837.975,0.366,0.000,-0.122,0.06250,1.00781,0.07763,28.34
$IMU,26837.978,0.305,0.000,-0.122,0.06298,1.00439,0.07812,28.34
$IMU,26837.980,0.122,0.000,-0.122,0.06152,1.00537,0.07568,28.34
$IMU,26837.982,-0.061,-0.061,-0.183,0.06103,1.00976,0.07763,28.34
$BARO,26837.984,86859.99,28.49
$MAG,26837.985,-0.427,-0.501,-0.673,27.6
$IMU,26837.985,-0.122,-0.122,-0.122,0.06054,1.01171,0.07910,28.34
$IMU,26837.987,-0.366,-0.122,-0.183,0.05957,1.01269,0.07812,28.34
$IMU,26837.990,-0.488,-0.061,-0.122,0.06054,1.01025,0.07910,28.34
$IMU,26837.992,-0.549,-0.122,-0.122,0.05908,1.00927,0.07958,28.34
$IMU,26837.994,-0.610,-0.061,0.000,0.05761,1.01074,0.08056,28.39
$MAG,26837.995,-0.430,-0.513,-0.672,27.5
$IMU,26837.997,-0.549,-0.122,0.000,0.05175,1.00878,0.08105,28.39
$IMU,26837.999,-0.549,-0.061,0.061,0.05712,1.00878,0.08300,28.39
$IMU,26838.001,-0.549,-0.122,0.061,0.05957,1.01220,0.08251,28.39
$IMU,26838.004,-0.610,0.061,0.122,0.05664,1.01171,0.08544,28.39
$MAG,26838.005,-0.429,-0.496,-0.672,27.5
$IMU,26838.006,-0.488,0.000,0.122,0.05468,1.01220,0.08349,28.39
$IMU,26838.008,-0.305,0.061,0.122,0.05566,1.01220,0.08447,28.39
$IMU,26838.011,-0.183,-0.122,0.061,0.05371,1.01269,0.08349,28.39
$IMU,26838.013,-0.305,-0.061,0.122,0.05517,1.01269,0.08447,28.35
$IMU,26838.015,-0.122,-0.122,0.122,0.05664,1.01074,0.08447,28.35
$MAG,26838.016,-0.438,-0.510,-0.675,27.5
$IMU,26838.018,-0.244,0.061,0.244,0.06152,1.01318,0.08544,28.35
$IMU,26838.020,-0.122,-0.061,0.183,0.05859,1.00976,0.08496,28.35
$IMU,26838.022,-0.061,-0.061,0.183,0.05615,1.00976,0.08251,28.35
$IMU,26838.025,-0.061,-0.122,0.122,0.05712,1.00830,0.08496,28.35
$MAG,26838.026,-0.424,-0.498,-0.667,27.6
$IMU,26838.027,-0.183,0.000,0.061,0.05615,1.00732,0.08251,28.35
$IMU,26838.029,-0.305,0.061,0.061,0.05761,1.01074,0.08349,28.35
$IMU,26838.032,-0.366,0.000,0.061,0.05615,1.00830,0.08300,28.37
$IMU,26838.034,-0.610,0.061,0.122,0.05712,1.00830,0.08496,28.37
$MAG,26838.036,-0.433,-0.504,-0.664,27.6
$IMU,26838.036,-0.671,-0.122,0.061,0.05712,1.00683,0.08398,28.37
$IMU,26838.039,-0.732,-0.183,0.183,0.05810,1.00830,0.08642,28.37
$IMU,26838.041,-0.915,-0.244,0.122,0.05957,1.00439,0.08691,28.37
$IMU,26838.043,-0.976,-0.122,0.061,0.06005,1.00195,0.08642,28.37
$MAG,26838.046,-0.429,-0.501,-0.663,27.6
$IMU,26838.046,-1.037,-0.061,0.000,0.05761,1.00390,0.08691,28.37
$IMU,26838.048,-1.098,-0.122,0.000,0.05615,1.00195,0.08935,28.37
$IMU,26838.051,-0.915,0.000,-0.122,0.05517,1.00097,0.08740,28.39
$IMU,26838.053,-0.793,-0.122,-0.122,0.05419,1.00439,0.08691,28.39
$IMU,26838.055,-0.610,-0.122,-0.122,0.05517,1.00244,0.08886,28.39
$MAG,26838.056,-0.436,-0.507,-0.669,27.5
$IMU,26838.058,-0.366,-0.122,-0.061,0.05468,1.00927,0.08886,28.39
$IMU,26838.060,-0.061,-0.183,-0.244,0.05615,1.00439,0.08935,28.39
$IMU,26838.062,0.061,-0.061,-0.244,0.05712,1.00830,0.08691,28.39
$IMU,26838.065,0.122,0.061,-0.366,0.05322,1.00830,0.08740,28.39
$MAG,26838.066,-0.429,-0.502,-0.673,27.6
$IMU,26838.067,0.244,-0.061,-0.427,0.05615,1.01123,0.08984,28.39
$IMU,26838.069,0.183,0.183,-0.366,0.05371,1.00878,0.08837,28.39
$IMU,26838.072,0.427,0.061,-0.305,0.05126,1.01074,0.08642,28.39
$IMU,26838.074,0.427,-0.122,-0.244,0.05273,1.01220,0.08740,28.39
$MAG,26838.076,-0.430,-0.508,-0.672,27.6
$IMU,26838.076,0.427,-0.122,-0.244,0.05468,1.01220,0.08544,28.39
$IMU,26838.079,0.488,-0.061,-0.244,0.05615,1.01074,0.08251,28.39
$IMU,26838.081,0.488,0.061,-0.366,0.05078,1.01367,0.08447,28.39
$IMU,26838.083,0.549,-0.061,-0.366,0.05224,1.01562,0.08105,28.39
$BARO,26838.085,86862.60,28.49
$MAG,26838.086,-0.430,-0.504,-0.669,27.6
$IMU,26838.086,0.610,-0.061,-0.244,0.05029,1.01562,0.08349,28.39
$IMU,26838.088,0.549,-0.122,-0.244,0.05175,1.01611,0.08349,28.37
$IMU,26838.090,0.427,-0.061,-0.244,0.05419,1.01269,0.08056,28.37
$IMU,26838.093,0.244,0.061,-0.061,0.05322,1.01318,0.08056,28.37
$IMU,26838.095,0.122,-0.061,-0.183,0.05419,1.01464,0.08154,28.37
$MAG,26838.096,-0.430,-0.496,-0.672,27.5
$IMU,26838.097,-0.061,-0.061,-0.183,0.05566,1.01025,0.08056,28.37
$IMU,26838.100,-0.183,0.000,-0.244,0.05419,1.01025,0.07958,28.37
$IMU,26838.102,-0.244,-0.122,-0.183,0.05224,1.00732,0.07958,28.37
$IMU,26838.104,-0.366,-0.122,-0.122,0.05371,1.00585,0.08007,28.37
$MAG,26838.106,-0.435,-0.510,-0.667,27.3
$IMU,26838.107,-0.427,-0.122,-0.061,0.05566,1.00830,0.07568,28.41
$IMU,26838.109,-0.488,-0.061,0.000,0.05761,1.00781,0.07714,28.41
$IMU,26838.112,-0.488,0.000,0.061,0.05859,1.00390,0.07861,28.41
$VBAT,26838.112,4.134
$IMU,26838.114,-0.427,-0.244,0.000,0.05908,1.00488,0.07861,28.41
$MAG,26838.116,-0.435,-0.510,-0.675,27.6
$IMU,26838.116,-0.549,-0.183,-0.122,0.06054,1.00244,0.08007,28.41
$IMU,26838.119,-0.610,-0.061,-0.122,0.06103,1.00195,0.07763,28.41
$IMU,26838.121,-0.610,0.000,-0.061,0.06347,1.00439,0.08007,28.41
$IMU,26838.123,-0.610,-0.061,-0.061,0.06689,1.00439,0.08007,28.41
$IMU,26838.126,-0.671,-0.061,-0.061,0.06103,1.00537,0.08056,28.37
$MAG,26838.127,-0.435,-0.502,-0.661,27.7
$IMU,26838.128,-0.732,-0.061,0.000,0.06152,1.00439,0.07910,28.37
$IMU,26838.130,-0.793,-0.061,-0.122,0.06347,1.00732,0.08105,28.37
$IMU,26838.133,-0.854,-0.061,-0.183,0.06298,1.00244,0.08056,28.37
$IMU,26838.135,-0.854,0.000,-0.244,0.06201,1.00488,0.08251,28.37
$MAG,26838.137,-0.433,-0.507,-0.672,27.6
$IMU,26838.137,-0.793,-0.122,-0.305,0.06152,1.00830,0.08251,28.37
$IMU,26838.140,-0.671,-0.122,-0.305,0.06201,1.01025,0.08349,28.37
$IMU,26838.142,-0.732,0.000,-0.183,0.06103,1.01025,0.08251,28.37
$IMU,26838.144,-0.671,-0.061,-0.183,0.06152,1.00976,0.08398,28.37
$MAG,26838.147,-0.436,-0.502,-0.664,27.5
$IMU,26838.147,-0.732,0.061,-0.244,0.06201,1.01171,0.08496,28.37
$IMU,26838.149,-0.671,0.000,-0.305,0.06396,1.01171,0.08398,28.37
$IMU,26838.151,-0.610,-0.061,-0.305,0.06347,1.01171,0.08544,28.37
$IMU,26838.154,-0.610,0.000,-0.305,0.06347,1.01318,0.08593,28.37
$IMU,26838.156,-0.549,0.000,-0.305,0.06103,1.01269,0.08642,28.37
$MAG,26838.157,-0.427,-0.501,-0.673,27.6
$IMU,26838.158,-0.427,0.000,-0.244,0.05957,1.01269,0.08691,28.37
$IMU,26838.161,-0.427,0.122,-0.183,0.06054,1.01318,0.08496,28.37
$IMU,26838.163,-0.244,0.000,-0.122,0.05712,1.01269,0.08789,28.37
$IMU,26838.165,-0.122,-0.122,-0.183,0.05908,1.01269,0.08593,28.37
$MAG,26838.167,-0.436,-0.507,-0.670,27.6
$IMU,26838.168,0.061,-0.122,-0.305,0.05957,1.01220,0.08740,28.37
$IMU,26838.170,0.122,-0.061,-0.366,0.05908,1.01318,0.08593,28.37
$IMU,26838.172,0.183,-0.061,-0.244,0.05810,1.00732,0.08740,28.37
$IMU,26838.175,0.305,0.000,-0.366,0.05566,1.00830,0.08593,28.37
$MAG,26838.177,-0.427,-0.517,-0.675,27.6
$IMU,26838.177,0.488,-0.061,-0.305,0.05371,1.00585,0.08447,28.37
$IMU,26838.180,0.488,0.000,-0.244,0.05517,1.00927,0.08349,28.37
$IMU,26838.182,0.427,0.061,-0.244,0.05761,1.00878,0.08251,28.35
$IMU,26838.184,0.427,-0.061,-0.244,0.05761,1.00781,0.08154,28.35
$BARO,26838.187,86860.19,28.49
$MAG,26838.187,-0.427,-0.502,-0.664,27.5
$IMU,26838.187,0.427,-0.061,-0.244,0.05712,1.00585,0.08007,28.35
$IMU,26838.189,0.183,0.000,-0.244,0.05517,1.00830,0.07958,28.35
$IMU,26838.191,0.183,-0.122,-0.305,0.05419,1.00585,0.08203,28.35
$IMU,26838.194,0.061,-0.305,-0.244,0.05517,1.00781,0.08007,28.35
$IMU,26838.196,-0.183,-0.183,-0.183,0.05712,1.00732,0.08203,28.35
$MAG,26838.197,-0.439,-0.505,-0.672,27.6
$IMU,26838.198,-0.305,-0.183,-0.061,0.05761,1.01025,0.08056,28.35
$IMU,26838.201,-0.610,0.000,-0.183,0.05371,1.00878,0.08300,28.39
$IMU,26838.203,-0.671,-0.061,-0.183,0.05859,1.00976,0.08154,28.39
$IMU,26838.205,-0.854,-0.122,-0.244,0.05468,1.01074,0.08154,28.39
$MAG,26838.207,-0.429,-0.502,-0.664,27.5
$IMU,26838.208,-1.037,-0.061,-0.183,0.05517,1.00878,0.08203,28.39
$IMU,26838.210,-1.159,-0.122,-0.122,0.05566,1.01220,0.08251,28.39
$IMU,26838.212,-1.220,-0.122,-0.061,0.05615,1.01123,0.08300,28.39
$IMU,26838.215,-1.220,-0.061,-0.061,0.05615,1.00537,0.08496,28.39
$MAG,26838.217,-0.438,-0.505,-0.672,27.3
$IMU,26838.217,-1.220,-0.061,-0.061,0.05712,1.00976,0.08740,28.39
$IMU,26838.219,-1.220,-0.244,-0.122,0.05761,1.00830,0.09082,28.37
$IMU,26838.222,-1.098,-0.244,-0.183,0.05810,1.00927,0.09228,28.37
$IMU,26838.224,-1.098,-0.061,-0.122,0.05761,1.00927,0.08886,28.37
$IMU,26838.226,-0.976,0.061,-0.122,0.05517,1.00781,0.08691,28.37
$MAG,26838.227,-0.430,-0.505,-0.666,27.6
$IMU,26838.229,-0.732,-0.061,-0.183,0.05615,1.00634,0.08984,28.37
$IMU,26838.231,-0.366,-0.183,-0.122,0.05810,1.00634,0.09130,28.37
$IMU,26838.233,-0.244,-0.061,-0.122,0.05664,1.00732,0.08935,28.37
$IMU,26838.236,0.061,-0.122,-0.244,0.05908,1.00976,0.08886,28.37
$MAG,26838.238,-0.430,-0.516,-0.672,27.6
$IMU,26838.238,0.183,0.000,-0.305,0.05810,1.00781,0.09033,28.36
$IMU,26838.241,0.305,0.000,-0.305,0.06005,1.00488,0.08837,28.36
$IMU,26838.243,0.549,-0.122,-0.427,0.06054,1.00439,0.08593,28.36
$IMU,26838.245,0.610,-0.122,-0.427,0.06103,1.00683,0.08349,28.36
$MAG,26838.248,-0.423,-0.499,-0.667,27.6
$IMU,26838.248,0.610,-0.061,-0.427,0.06103,1.00244,0.08496,28.36
$IMU,26838.250,0.610,-0.061,-0.488,0.06054,1.00781,0.08105,28.36
$IMU,26838.252,0.610,-0.122,-0.366,0.05908,1.00732,0.08105,28.36
$IMU,26838.255,0.488,0.000,-0.427,0.06201,1.00927,0.08056,28.36
$IMU,26838.257,0.427,0.000,-0.366,0.06005,1.00878,0.07812,28.36
$MAG,26838.258,-0.435,-0.501,-0.666,27.6
$IMU,26838.259,0.366,-0.183,-0.488,0.05810,1.00732,0.07763,28.36
$IMU,26838.262,0.122,-0.061,-0.427,0.05908,1.00878,0.07714,28.36
$IMU,26838.264,0.000,0.000,-0.427,0.05761,1.00927,0.07763,28.36
$IMU,26838.266,-0.122,-0.122,-0.366,0.05810,1.00927,0.07568,28.36
$MAG,26838.268,-0.429,-0.499,-0.673,27.6
$IMU,26838.269,-0.366,-0.122,-0.366,0.05859,1.01171,0.07861,28.36
$IMU,26838.271,-0.488,0.000,-0.366,0.05957,1.01171,0.07666,28.36
$IMU,26838.273,-0.671,0.000,-0.427,0.05908,1.01318,0.08007,28.36
$IMU,26838.276,-0.610,-0.183,-0.427,0.05810,1.01123,0.07861,28.37
$MAG,26838.278,-0.429,-0.507,-0.664,27.5
$IMU,26838.278,-0.671,-0.061,-0.427,0.05761,1.01269,0.07910,28.37
$IMU,26838.280,-0.732,-0.061,-0.427,0.05761,1.01171,0.08349,28.37
$IMU,26838.283,-0.671,-0.061,-0.366,0.05566,1.01123,0.08105,28.37
$IMU,26838.285,-0.610,-0.122,-0.305,0.05468,1.01074,0.07910,28.37
$IMU,26838.287,-0.549,0.000,-0.305,0.05810,1.01318,0.08447,28.37
$BARO,26838.288,86868.03,28.49
$MAG,26838.288,-0.430,-0.513,-0.673,27.6
$IMU,26838.290,-0.427,-0.183,-0.244,0.05908,1.01416,0.08349,28.37
$IMU,26838.292,-0.366,-0.122,-0.183,0.05517,1.01660,0.08544,28.37
$IMU,26838.294,-0.305,-0.122,-0.183,0.05761,1.01318,0.08398,28.37
$IMU,26838.297,-0.366,-0.122,-0.305,0.05615,1.00976,0.08300,28.37
$MAG,26838.298,-0.433,-0.498,-0.672,27.3
$IMU,26838.299,-0.305,-0.061,-0.244,0.05664,1.00927,0.08300,28.37
$IMU,26838.302,-0.244,-0.122,-0.244,0.05566,1.01171,0.08349,28.37
$IMU,26838.304,-0.366,-0.122,-0.183,0.05566,1.01074,0.08154,28.37
$IMU,26838.306,-0.305,-0.122,-0.122,0.05859,1.00781,0.08349,28.37
$MAG,26838.308,-0.423,-0.510,-0.678,27.3
$IMU,26838.309,-0.305,-0.122,-0.183,0.05615,1.01074,0.08496,28.37
$IMU,26838.311,-0.366,-0.061,-0.122,0.06005,1.00927,0.08105,28.37
$IMU,26838.313,-0.427,0.000,-0.122,0.05664,1.00927,0.08203,28.38
$IMU,26838.316,-0.488,-0.061,-0.183,0.06054,1.00781,0.08105,28.38
$MAG,26838.318,-0.430,-0.504,-0.667,27.3
$IMU,26838.318,-0.549,-0.061,-0.244,0.05761,1.00732,0.08251,28.38
$IMU,26838.320,-0.610,0.000,-0.244,0.05664,1.00439,0.08154,28.38
$IMU,26838.323,-0.549,-0.183,-0.183,0.06152,1.00585,0.08349,28.38
$IMU,26838.325,-0.610,-0.061,-0.244,0.06201,1.00585,0.08447,28.38
$IMU,26838.327,-0.671,-0.122,-0.183,0.05957,1.00683,0.08789,28.38
$MAG,26838.328,-0.442,-0.505,-0.664,27.6
$IMU,26838.330,-0.671,-0.122,-0.183,0.06054,1.00537,0.08593,28.38
$IMU,26838.332,-0.793,0.000,-0.244,0.06005,1.00683,0.08251,28.35
$IMU,26838.334,-0.732,-0.061,-0.305,0.05908,1.00634,0.08544,28.35
$IMU,26838.337,-0.671,-0.061,-0.305,0.05810,1.00537,0.08544,28.35
$MAG,26838.338,-0.435,-0.505,-0.672,27.6
$IMU,26838.339,-0.671,0.000,-0.244,0.06005,1.00585,0.08496,28.35
$IMU,26838.341,-0.610,0.122,-0.244,0.05615,1.00781,0.08496,28.35
$IMU,26838.344,-0.427,0.000,-0.244,0.05859,1.00878,0.08251,28.35
$IMU,26838.346,-0.305,0.000,-0.244,0.06103,1.00927,0.08447,28.35
$IMU,26838.348,-0.183,-0.122,-0.305,0.06298,1.01123,0.08203,28.35
$MAG,26838.349,-0.427,-0.502,-0.670,27.5
$IMU,26838.351,-0.061,-0.122,-0.366,0.06005,1.00830,0.08593,28.39
$IMU,26838.353,0.061,-0.061,-0.427,0.05957,1.01025,0.08300,28.39
$IMU,26838.355,0.122,-0.122,-0.427,0.05761,1.01171,0.08398,28.39
$IMU,26838.358,0.122,0.061,-0.366,0.05810,1.01171,0.08349,28.39
$MAG,26838.359,-0.436,-0.507,-0.673,27.6
$IMU,26838.360,0.305,-0.061,-0.244,0.05859,1.01123,0.08593,28.39
$IMU,26838.363,0.366,-0.122,-0.183,0.06201,1.01269,0.08544,28.39
$IMU,26838.365,0.183,0.000,-0.122,0.06347,1.01367,0.08300,28.39
$IMU,26838.367,0.122,0.000,-0.183,0.06152,1.01855,0.08593,28.39
$MAG,26838.369,-0.429,-0.499,-0.678,27.6
$IMU,26838.370,0.122,-0.122,-0.244,0.06005,1.01611,0.08300,28.39
$IMU,26838.372,0.061,-0.122,-0.244,0.05859,1.01464,0.08154,28.39
$IMU,26838.374,-0.061,-0.061,-0.122,0.05957,1.01074,0.07958,28.39
$IMU,26838.377,-0.305,0.000,-0.061,0.05957,1.00976,0.08007,28.39
$MAG,26838.379,-0.433,-0.502,-0.667,27.6
$IMU,26838.379,-0.366,0.122,0.000,0.06152,1.01123,0.08251,28.39
$IMU,26838.381,-0.305,-0.122,0.000,0.06103,1.01025,0.08251,28.39
$IMU,26838.384,-0.366,-0.122,-0.061,0.05908,1.00878,0.07812,28.39
$IMU,26838.386,-0.305,-0.122,-0.061,0.05908,1.01025,0.08154,28.39
$IMU,26838.388,-0.366,-0.061,-0.061,0.05761,1.00976,0.08056,28.41
$MAG,26838.389,-0.430,-0.501,-0.672,27.6
$BARO,26838.390,86873.28,28.49
$IMU,26838.391,-0.305,-0.061,-0.183,0.05859,1.00781,0.08105,28.41
$IMU,26838.393,-0.244,-0.122,-0.122,0.05712,1.00537,0.07910,28.41
$IMU,26838.395,-0.183,-0.061,-0.061,0.05371,1.00439,0.07958,28.41
$IMU,26838.398,-0.122,-0.122,0.000,0.05712,1.00585,0.08203,28.41
$MAG,26838.399,-0.438,-0.513,-0.663,27.6
$IMU,26838.400,-0.061,-0.183,-0.122,0.05908,1.00390,0.08154,28.41
$IMU,26838.402,-0.183,0.000,-0.122,0.05566,1.00830,0.08203,28.41
$IMU,26838.405,-0.305,0.000,-0.183,0.05712,1.00781,0.08203,28.41
$IMU,26838.407,-0.305,0.000,-0.244,0.05664,1.00732,0.08251,28.37
$MAG,26838.409,-0.429,-0.507,-0.672,27.6
$IMU,26838.409,-0.366,0.000,-0.183,0.05322,1.00488,0.08349,28.37
$IMU,26838.412,-0.488,-0.061,-0.122,0.05224,1.00732,0.08300,28.37
$IMU,26838.414,-0.610,-0.061,-0.061,0.05517,1.00927,0.08154,28.37
$IMU,26838.416,-0.549,-0.122,0.000,0.05517,1.00927,0.08447,28.37
$MAG,26838.419,-0.435,-0.510,-0.676,27.5
$IMU,26838.419,-0.549,0.000,-0.061,0.05517,1.01318,0.08398,28.37
$IMU,26838.421,-0.610,-0.183,-0.183,0.05566,1.01220,0.08349,28.37
$IMU,26838.424,-0.671,-0.122,-0.244,0.05078,1.01367,0.08300,28.37
$IMU,26838.426,-0.610,-0.061,-0.244,0.05273,1.00878,0.08691,28.35
$IMU,26838.428,-0.549,-0.122,-0.244,0.05078,1.01074,0.08740,28.35
$MAG,26838.429,-0.441,-0.504,-0.664,27.6
$IMU,26838.431,-0.427,-0.183,-0.061,0.05322,1.01074,0.08593,28.35
$IMU,26838.433,-0.366,0.061,0.000,0.05517,1.00732,0.08496,28.35
$IMU,26838.435,-0.244,0.000,-0.183,0.05615,1.00976,0.08886,28.35
$HUM,26838.438,33.8,28.9
$IMU,26838.438,-0.122,-0.183,-0.183,0.05615,1.00878,0.08691,28.35
$MAG,26838.439,-0.426,-0.507,-0.687,27.6
$IMU,26838.440,0.000,0.000,-0.244,0.05517,1.01123,0.08496,28.35
$IMU,26838.442,0.000,-0.061,-0.305,0.05175,1.01074,0.08691,28.35
$IMU,26838.445,0.061,-0.061,-0.244,0.05371,1.00878,0.08544,28.41
$IMU,26838.447,0.122,-0.122,-0.183,0.05566,1.00878,0.08740,28.41
$MAG,26838.449,-0.435,-0.505,-0.670,27.6
$IMU,26838.449,0.061,0.000,-0.122,0.05419,1.01025,0.08056,28.41
$IMU,26838.452,0.122,-0.183,-0.061,0.05566,1.01123,0.08105,28.41
$IMU,26838.454,0.122,-0.122,-0.061,0.05517,1.00927,0.08251,28.41
$IMU,26838.456,0.061,-0.061,-0.122,0.05615,1.00878,0.08300,28.41
$IMU,26838.459,-0.061,-0.122,-0.183,0.05566,1.00927,0.08251,28.41
$MAG,26838.460,-0.441,-0.498,-0.673,27.5
$IMU,26838.461,-0.061,-0.183,-0.183,0.05712,1.00878,0.08203,28.41
$IMU,26838.463,-0.244,-0.061,-0.122,0.05468,1.00585,0.08203,28.38
$IMU,26838.466,-0.305,-0.122,-0.061,0.05908,1.00683,0.08349,28.38
$IMU,26838.468,-0.549,0.000,0.061,0.06152,1.00585,0.08398,28.38
$MAG,26838.470,-0.433,-0.501,-0.673,27.5
$IMU,26838.470,-0.549,-0.061,0.000,0.06250,1.00732,0.08300,28.38
$IMU,26838.473,-0.427,-0.183,-0.061,0.06298,1.01269,0.08203,28.38
$IMU,26838.475,-0.671,0.000,-0.122,0.06250,1.01025,0.08349,28.38
$IMU,26838.477,-0.793,-0.061,-0.122,0.06396,1.00781,0.08398,28.38
$MAG,26838.480,-0.424,-0.501,-0.669,27.6
$IMU,26838.480,-0.732,-0.122,-0.122,0.06494,1.00585,0.08544,28.38
$IMU,26838.482,-0.732,0.000,-0.122,0.06054,1.00830,0.08349,28.35
$IMU,26838.485,-0.732,0.000,-0.061,0.06250,1.00439,0.08251,28.35
$IMU,26838.487,-0.610,-0.122,-0.061,0.06298,1.00634,0.08544,28.35
$IMU,26838.489,-0.549,-0.061,-0.122,0.06494,1.00390,0.08447,28.35
$MAG,26838.490,-0.430,-0.510,-0.669,27.5
$BARO,26838.491,86865.01,28.49
$IMU,26838.492,-0.488,-0.061,-0.244,0.06201,1.00830,0.08593,28.35
$IMU,26838.494,-0.366,0.000,-0.366,0.06103,1.01220,0.08544,28.35
$IMU,26838.496,-0.183,-0.061,-0.366,0.06152,1.00634,0.08544,28.35
$IMU,26838.499,-0.122,0.000,-0.366,0.05957,1.00537,0.08398,28.35
$MAG,26838.500,-0.435,-0.505,-0.667,27.6
$IMU,26838.501,0.000,-0.183,-0.305,0.05957,1.00390,0.08349,28.36
$IMU,26838.503,0.122,-0.122,-0.305,0.06250,1.00683,0.08251,28.36
$IMU,26838.506,0.122,0.000,-0.366,0.05859,1.00781,0.08251,28.36
$IMU,26838.508,0.061,-0.061,-0.366,0.05908,1.00830,0.08251,28.36
$MAG,26838.510,-0.438,-0.501,-0.666,27.6
$IMU,26838.510,0.122,-0.061,-0.427,0.06103,1.00927,0.08398,28.36
$IMU,26838.513,0.061,-0.061,-0.549,0.05859,1.01171,0.08105,28.36
$IMU,26838.515,0.061,-0.122,-0.549,0.05517,1.00976,0.08154,28.36
$IMU,26838.517,0.000,-0.061,-0.488,0.05810,1.00634,0.08300,28.36
$MAG,26838.520,-0.423,-0.511,-0.670,27.5
$IMU,26838.520,-0.183,0.000,-0.427,0.05566,1.00732,0.08349,28.35
$IMU,26838.522,-0.183,0.000,-0.366,0.05615,1.01269,0.08398,28.35
$IMU,26838.524,-0.122,-0.061,-0.366,0.05664,1.01123,0.08398,28.35
$IMU,26838.527,-0.122,-0.183,-0.427,0.05566,1.01171,0.08154,28.35
$IMU,26838.529,-0.244,-0.122,-0.427,0.05419,1.01318,0.08398,28.35
$MAG,26838.530,-0.433,-0.508,-0.672,27.5
$IMU,26838.531,-0.305,0.000,-0.366,0.05517,1.01220,0.08300,28.35
$IMU,26838.534,-0.244,-0.122,-0.366,0.05078,1.00878,0.08056,28.35
$IMU,26838.536,-0.244,-0.122,-0.366,0.04736,1.01318,0.08300,28.35
$IMU,26838.538,-0.244,0.061,-0.305,0.05029,1.00927,0.08251,28.36
$MAG,26838.540,-0.438,-0.511,-0.672,27.6
$IMU,26838.541,-0.183,0.000,-0.244,0.05224,1.01025,0.08203,28.36
$IMU,26838.543,-0.122,-0.122,-0.244,0.05371,1.01025,0.08300,28.36
$IMU,26838.545,-0.061,0.061,-0.183,0.05126,1.01220,0.08203,28.36
$IMU,26838.548,-0.061,0.000,-0.305,0.05029,1.01123,0.08105,28.36
$MAG,26838.550,-0.435,-0.510,-0.664,27.6
$IMU,26838.550,0.000,-0.244,-0.244,0.04931,1.00976,0.08300,28.36
$IMU,26838.553,-0.061,-0.061,-0.183,0.04736,1.00976,0.08105,28.36
$IMU,26838.555,-0.122,-0.061,-0.122,0.05029,1.01025,0.08203,28.36
$IMU,26838.557,-0.244,-0.061,-0.061,0.04931,1.01025,0.08251,28.37
$IMU,26838.560,-0.244,0.000,0.061,0.05175,1.00976,0.08300,28.37
$MAG,26838.561,-0.430,-0.499,-0.667,27.6
$IMU,26838.562,-0.244,0.000,-0.061,0.05322,1.01220,0.07958,28.37
$IMU,26838.564,-0.427,-0.122,0.061,0.05566,1.00976,0.08154,28.37
$IMU,26838.567,-0.488,-0.061,0.061,0.05419,1.01025,0.08251,28.37
$IMU,26838.569,-0.671,0.000,0.061,0.05517,1.01123,0.08154,28.37
$MAG,26838.571,-0.429,-0.505,-0.672,27.6
$IMU,26838.571,-0.671,-0.061,0.061,0.05371,1.01220,0.08496,28.37
$IMU,26838.574,-0.732,-0.061,0.122,0.05566,1.01269,0.08300,28.37
$IMU,26838.576,-0.793,-0.061,0.244,0.05371,1.01269,0.08105,28.39
$IMU,26838.578,-0.854,-0.122,0.244,0.06005,1.01416,0.08789,28.39
$MAG,26838.581,-0.435,-0.501,-0.672,27.6
$IMU,26838.581,-1.037,0.000,0.244,0.06005,1.01318,0.08740,28.39
$IMU,26838.583,-1.037,-0.061,0.244,0.06005,1.00878,0.08593,28.39
$IMU,26838.585,-0.976,0.000,0.244,0.06152,1.01074,0.08886,28.39
$IMU,26838.588,-0.854,-0.061,0.122,0.05957,1.00830,0.08691,28.39
$IMU,26838.590,-0.732,-0.183,0.244,0.06298,1.00732,0.08691,28.39
$MAG,26838.591,-0.426,-0.504,-0.666,27.6
$IMU,26838.592,-0.549,-0.061,0.183,0.06298,1.00585,0.08691,28.39
$BARO,26838.593,86869.86,28.49
$IMU,26838.595,-0.427,0.000,0.122,0.05908,1.00781,0.08642,28.39
$IMU,26838.597,-0.244,-0.061,0.122,0.06494,1.00439,0.08789,28.39
$IMU,26838.599,0.061,-0.061,0.061,0.06152,1.01123,0.08642,28.39
$MAG,26838.601,-0.426,-0.508,-0.673,27.6
$IMU,26838.602,0.183,-0.122,0.000,0.06250,1.00878,0.08740,28.39
$IMU,26838.604,0.305,-0.061,-0.061,0.06005,1.00341,0.08544,28.39
$IMU,26838.606,0.427,-0.061,-0.122,0.06201,1.00537,0.08740,28.39
$IMU,26838.609,0.427,0.000,-0.122,0.06103,1.00390,0.08544,28.39
$MAG,26838.611,-0.436,-0.507,-0.663,27.6
$IMU,26838.611,0.427,-0.061,-0.183,0.06396,1.00244,0.08154,28.39
$IMU,26838.614,0.488,-0.122,-0.122,0.06103,1.00732,0.08544,28.39
$IMU,26838.616,0.427,-0.183,-0.061,0.06054,1.00683,0.08203,28.39
$IMU,26838.618,0.427,-0.061,-0.183,0.05761,1.00830,0.08251,28.39
$MAG,26838.621,-0.433,-0.510,-0.672,27.6
$IMU,26838.621,0.366,-0.061,-0.183,0.06005,1.00927,0.08105,28.39
$IMU,26838.623,0.305,-0.122,-0.244,0.06103,1.00927,0.07958,28.39
$IMU,26838.625,0.244,-0.122,-0.183,0.05859,1.01025,0.08203,28.39
$IMU,26838.628,0.183,-0.183,-0.122,0.05761,1.01074,0.08007,28.39
$IMU,26838.630,0.183,0.000,-0.183,0.05810,1.00976,0.08056,28.39
$MAG,26838.631,-0.423,-0.502,-0.667,27.6
$IMU,26838.632,0.061,-0.061,-0.122,0.05615,1.01220,0.07910,28.34
$IMU,26838.635,0.000,0.000,-0.061,0.06103,1.01318,0.07958,28.34
$IMU,26838.637,0.000,-0.122,-0.122,0.05615,1.01611,0.08105,28.34
$IMU,26838.639,-0.061,-0.061,-0.122,0.05761,1.01220,0.07910,28.34
$MAG,26838.641,-0.430,-0.499,-0.666,27.6
$IMU,26838.642,-0.183,-0.122,-0.122,0.05566,1.01171,0.08203,28.34
$IMU,26838.644,-0.244,-0.061,-0.061,0.05712,1.00927,0.08056,28.34
$IMU,26838.646,-0.305,0.061,0.000,0.05615,1.00830,0.08300,28.34
$IMU,26838.649,-0.366,0.061,0.061,0.05761,1.01171,0.07910,28.34
$MAG,26838.651,-0.433,-0.505,-0.678,27.7
$IMU,26838.651,-0.305,-0.061,0.061,0.05908,1.01269,0.08056,28.38
$IMU,26838.653,-0.244,-0.122,0.061,0.05712,1.01513,0.07958,28.38
$IMU,26838.656,-0.183,-0.061,-0.061,0.05615,1.00878,0.08105,28.38
$IMU,26838.658,-0.183,0.061,-0.061,0.05664,1.00976,0.07568,28.38
$IMU,26838.660,-0.244,0.000,0.000,0.05957,1.00830,0.08300,28.38
$MAG,26838.661,-0.430,-0.513,-0.681,27.6
$IMU,26838.663,-0.183,-0.061,0.061,0.05224,1.00683,0.07861,28.38
$IMU,26838.665,-0.305,0.000,0.122,0.05615,1.00878,0.08154,28.38
$IMU,26838.667,-0.244,-0.122,0.122,0.06054,1.00878,0.07910,28.38
$IMU,26838.670,-0.305,-0.122,0.061,0.05761,1.00781,0.08105,28.37
$MAG,26838.672,-0.420,-0.510,-0.679,27.5
$IMU,26838.672,-0.488,0.000,0.061,0.05957,1.00878,0.08154,28.37
$IMU,26838.675,-0.549,-0.061,0.122,0.05810,1.00634,0.08349,28.37
$IMU,26838.677,-0.671,-0.183,0.000,0.05371,1.00927,0.08300,28.37
$IMU,26838.679,-0.732,-0.061,-0.061,0.05712,1.00439,0.08496,28.37
$MAG,26838.682,-0.424,-0.508,-0.675,27.5
$IMU,26838.682,-0.793,0.000,0.000,0.05566,1.00634,0.08398,28.37
$IMU,26838.684,-0.732,-0.122,0.122,0.05957,1.00732,0.08544,28.37
$IMU,26838.686,-0.793,0.000,0.061,0.06152,1.00732,0.08740,28.37
$IMU,26838.689,-0.854,0.061,0.061,0.06054,1.00830,0.08496,28.37
$IMU,26838.691,-0.854,0.000,0.000,0.05957,1.00878,0.08837,28.37
$MAG,26838.692,-0.426,-0.511,-0.675,27.6
$IMU,26838.693,-0.793,-0.122,-0.183,0.05859,1.00781,0.08593,28.37
$BARO,26838.694,86869.30,28.48
$IMU,26838.696,-0.671,-0.122,-0.122,0.05761,1.00927,0.08642,28.37
$IMU,26838.698,-0.671,-0.061,-0.122,0.05761,1.00683,0.08691,28.37
$IMU,26838.700,-0.610,0.183,-0.061,0.05761,1.00976,0.08935,28.37
$MAG,26838.702,-0.430,-0.505,-0.669,27.6
$IMU,26838.703,-0.366,0.000,0.000,0.05664,1.00585,0.08886,28.37
$IMU,26838.705,-0.122,-0.122,-0.122,0.05517,1.01025,0.08935,28.37
$IMU,26838.707,-0.061,0.000,-0.122,0.05517,1.01220,0.08740,28.40
$IMU,26838.710,-0.061,0.061,-0.183,0.05517,1.01464,0.08642,28.40
$MAG,26838.712,-0.436,-0.505,-0.675,27.6
$IMU,26838.712,0.061,-0.061,-0.305,0.05859,1.00830,0.08642,28.40
$IMU,26838.714,0.244,-0.122,-0.244,0.05517,1.00976,0.08837,28.40
$IMU,26838.717,0.305,-0.061,-0.244,0.05810,1.00732,0.08496,28.40
$IMU,26838.719,0.366,-0.122,-0.122,0.05908,1.00927,0.08886,28.40
$IMU,26838.721,0.427,0.000,-0.122,0.05468,1.00830,0.08642,28.40
$MAG,26838.722,-0.430,-0.507,-0.673,27.6
$IMU,26838.724,0.366,0.122,-0.183,0.05615,1.01123,0.08300,28.40
$IMU,26838.726,0.366,-0.061,-0.183,0.05615,1.01171,0.08300,28.35
$IMU,26838.728,0.427,-0.061,-0.244,0.05908,1.01269,0.08251,28.35
$IMU,26838.731,0.366,-0.061,-0.244,0.05615,1.01367,0.08544,28.35
$MAG,26838.732,-0.433,-0.504,-0.663,27.6
$IMU,26838.733,0.305,-0.122,-0.183,0.05761,1.00732,0.08105,28.35
$IMU,26838.736,0.244,0.000,-0.061,0.05712,1.00830,0.07958,28.35
$IMU,26838.738,0.183,-0.061,-0.061,0.05859,1.00976,0.07812,28.35
$IMU,26838.740,0.000,0.000,-0.061,0.05712,1.01123,0.08007,28.35
$MAG,26838.742,-0.438,-0.505,-0.676,27.6
$IMU,26838.743,-0.061,-0.061,-0.122,0.05712,1.00976,0.07958,28.35
$IMU,26838.745,-0.183,-0.122,-0.061,0.05810,1.01123,0.08300,28.40
$IMU,26838.747,-0.244,-0.061,-0.061,0.05859,1.00878,0.08154,28.40
$IMU,26838.750,-0.366,0.000,-0.122,0.05566,1.00878,0.07910,28.40
$MAG,26838.752,-0.433,-0.504,-0.672,27.5
$IMU,26838.752,-0.488,-0.122,0.000,0.05664,1.00634,0.08007,28.40
$IMU,26838.754,-0.549,-0.122,0.000,0.06005,1.00976,0.08154,28.40
$IMU,26838.757,-0.549,-0.122,0.122,0.05810,1.01025,0.08300,28.40
$IMU,26838.759,-0.549,-0.061,0.122,0.05859,1.00927,0.08154,28.40
$IMU,26838.761,-0.488,-0.122,0.061,0.05957,1.01367,0.08105,28.40
$MAG,26838.762,-0.435,-0.502,-0.667,27.6
$IMU,26838.764,-0.610,-0.061,0.000,0.05908,1.01220,0.08349,28.41
$IMU,26838.766,-0.549,-0.061,0.061,0.05664,1.01318,0.08300,28.41
$IMU,26838.768,-0.549,-0.122,0.000,0.05712,1.00878,0.08544,28.41
$IMU,26838.771,-0.671,0.000,0.122,0.05566,1.01074,0.08300,28.41
$MAG,26838.772,-0.438,-0.514,-0.678,27.5
$IMU,26838.773,-0.610,0.000,0.122,0.05908,1.00732,0.08593,28.41
$IMU,26838.775,-0.610,-0.061,0.122,0.05957,1.00878,0.08349,28.41
$IMU,26838.778,-0.427,-0.183,0.061,0.05908,1.00683,0.08691,28.41
$IMU,26838.780,-0.366,-0.244,0.122,0.05957,1.00830,0.08740,28.41
$IMU,26838.782,-0.183,-0.122,0.000,0.06152,1.01025,0.08593,28.40
$MAG,26838.783,-0.426,-0.510,-0.672,27.6
$IMU,26838.785,-0.122,-0.244,0.000,0.06250,1.00976,0.08593,28.40
$IMU,26838.787,-0.122,0.000,0.061,0.05859,1.00781,0.08642,28.40
$IMU,26838.789,-0.061,-0.061,0.061,0.06152,1.00634,0.08496,28.40
$IMU,26838.792,-0.061,-0.183,0.122,0.06103,1.00878,0.08496,28.40
$MAG,26838.793,-0.426,-0.504,-0.672,27.6
$IMU,26838.794,0.000,-0.122,0.122,0.06494,1.00830,0.08496,28.40
$BARO,26838.796,86864.43,28.49
$IMU,26838.797,0.061,-0.122,-0.061,0.06347,1.00781,0.08447,28.40
$IMU,26838.799,-0.061,-0.122,-0.061,0.06298,1.00732,0.08349,28.40
$IMU,26838.801,0.000,-0.122,-0.122,0.06347,1.00781,0.08544,28.39
$MAG,26838.803,-0.433,-0.504,-0.670,27.6
$IMU,26838.804,-0.061,-0.122,-0.122,0.06201,1.00878,0.08154,28.39
$IMU,26838.806,-0.061,-0.183,-0.122,0.05908,1.00439,0.08203,28.39
$IMU,26838.808,-0.122,-0.122,-0.061,0.06201,1.00292,0.08300,28.39
$IMU,26838.811,-0.122,-0.061,-0.183,0.06152,1.00292,0.07910,28.39
$MAG,26838.813,-0.436,-0.504,-0.676,27.6
$IMU,26838.813,-0.183,0.000,-0.183,0.06152,1.00634,0.08105,28.39
$IMU,26838.815,-0.305,-0.061,-0.183,0.05957,1.00439,0.08349,28.39
$IMU,26838.818,-0.244,0.000,-0.244,0.05957,1.00390,0.08300,28.39
$IMU,26838.820,-0.244,0.000,-0.305,0.06152,1.00439,0.08349,28.40
$IMU,26838.822,-0.183,-0.183,-0.305,0.05957,1.00244,0.08398,28.40
$MAG,26838.823,-0.427,-0.505,-0.669,27.6
$IMU,26838.825,-0.183,0.000,-0.244,0.05712,1.00585,0.08105,28.40
