$FLYS,1
$VAR,FIRMWARE_VER,v2024.12.30
$VAR,DEVICE_ID,0017003b3253501720373657
$VAR,SESSION_ID,5dbc5c019ed5ae142cc9e287
$COL,BARO,time,pressure,temperature
$UNIT,BARO,s,Pa,deg C
$COL,HUM,time,humidity,temperature
$UNIT,HUM,s,percent,deg C
$COL,MAG,time,x,y,z,temperature
$UNIT,MAG,s,gauss,gauss,gauss,deg C
$COL,IMU,time,wx,wy,wz,ax,ay,az,temperature
$UNIT,IMU,s,deg/s,deg/s,deg/s,g,g,g,deg C
$COL,TIME,time,tow,week
$UNIT,TIME,s,s,
$COL,VBAT,time,voltage
$UNIT,VBAT,s,volt
$DATA
$IMU,26885.645,7.385,-23.681,-30.395,0.69238,0.36767,-0.12841,27.95
$IMU,26885.647,-10.192,-9.521,-13.916,0.82031,0.50000,-0.11279,27.95
$IMU,26885.650,-3.723,-0.610,2.868,0.79199,0.58300,-0.05419,27.95
$IMU,26885.652,3.417,-0.427,-4.394,0.72851,0.64794,-0.02099,27.95
$IMU,26885.655,10.070,1.220,-20.996,0.63916,0.65136,-0.01025,27.95
$IMU,26885.657,13.854,15.014,-29.907,0.55566,0.63378,-0.02050,27.95
$IMU,26885.659,14.770,31.921,-32.958,0.54736,0.66552,-0.00341,27.95
$IMU,26885.662,15.563,48.828,-33.935,0.47998,0.67919,-0.04736,28.54
$IMU,26885.664,28.625,43.457,-65.002,0.44091,0.70019,-0.09228,28.54
$IMU,26885.666,41.076,36.071,-90.454,0.42041,0.72363,-0.15722,28.54
$IMU,26885.669,44.982,38.391,-94.360,0.45312,0.76660,-0.17919,28.54
$IMU,26885.671,48.034,37.841,-94.787,0.49755,0.83789,-0.21044,28.54
$IMU,26885.673,49.133,34.484,-91.857,0.53808,0.90185,-0.27197,28.54
$IMU,26885.676,47.790,27.282,-87.036,0.59375,0.96191,-0.34814,28.54
$IMU,26885.678,44.494,18.005,-79.772,0.64843,1.02148,-0.40380,28.54
$IMU,26885.680,39.978,7.385,-71.960,0.70214,1.03515,-0.44677,28.58
$IMU,26885.683,35.705,-5.187,-62.011,0.76220,1.02441,-0.48437,28.58
$IMU,26885.685,29.418,-16.418,-43.518,0.82763,1.02294,-0.49853,28.58
$IMU,26885.687,31.799,-30.090,-34.606,0.75878,0.94775,-0.55224,28.58
$IMU,26885.690,42.419,-47.485,-30.944,0.64013,0.83447,-0.56103,28.58
$IMU,26885.692,57.922,-63.964,-29.418,0.52734,0.83593,-0.49462,28.58
$IMU,26885.694,69.824,-77.697,-28.930,0.46093,0.88964,-0.43115,28.58
$IMU,26885.697,73.669,-87.890,-27.770,0.42724,0.92138,-0.38720,28.58
$IMU,26885.699,70.922,-93.933,-24.475,0.41943,0.94335,-0.34521,28.58
$IMU,26885.702,65.856,-97.351,-19.836,0.40332,0.95556,-0.29296,28.58
$IMU,26885.704,60.607,-98.510,-15.930,0.37207,0.98632,-0.24462,28.58
$IMU,26885.706,56.274,-98.022,-13.061,0.34423,1.01220,-0.19873,28.58
$IMU,26885.709,53.222,-96.191,-10.437,0.31787,1.02783,-0.16992,28.58
$IMU,26885.711,51.330,-93.994,-8.056,0.29492,1.04687,-0.15429,28.58
$IMU,26885.713,49.865,-90.881,-6.103,0.27636,1.06542,-0.16210,28.58
$IMU,26885.716,49.072,-87.585,-3.845,0.25341,1.07275,-0.17480,28.58
$IMU,26885.718,49.133,-84.045,-1.708,0.23437,1.07275,-0.19091,28.61
$IMU,26885.720,50.170,-79.589,-0.061,0.21142,1.06494,-0.20312,28.61
$IMU,26885.723,52.062,-74.707,0.915,0.18896,1.05712,-0.21044,28.61
$IMU,26885.725,53.833,-69.396,1.159,0.17285,1.04882,-0.21484,28.61
$IMU,26885.727,55.236,-64.208,0.305,0.16113,1.03857,-0.22607,28.61
$IMU,26885.730,56.396,-59.570,-1.464,0.14355,1.03710,-0.23095,28.61
$IMU,26885.732,56.884,-55.480,-3.662,0.13134,1.04199,-0.22216,28.61
$IMU,26885.734,55.908,-50.598,-5.981,0.12646,1.03320,-0.21044,28.61
$IMU,26885.737,53.771,-44.372,-7.995,0.12451,1.02392,-0.20605,28.62
$IMU,26885.739,51.635,-37.231,-9.216,0.12109,1.01513,-0.20605,28.62
$IMU,26885.741,50.231,-29.235,-10.375,0.12304,1.01660,-0.21093,28.62
$IMU,26885.744,49.926,-20.568,-11.657,0.11767,1.02734,-0.22167,28.62
$IMU,26885.746,51.208,-12.634,-12.573,0.09667,1.04199,-0.24169,28.62
$IMU,26885.748,54.016,-6.713,-13.305,0.06054,1.08105,-0.23632,28.62
$IMU,26885.751,56.884,-2.197,-14.526,0.01611,1.12353,-0.20312,28.62
$IMU,26885.753,59.448,-0.122,-15.747,-0.04394,1.15673,-0.18603,28.62
$IMU,26885.755,61.706,-1.831,-16.479,-0.10644,1.19726,-0.15625,28.59
$IMU,26885.758,62.072,-5.004,-17.333,-0.15039,1.22607,-0.08447,28.59
$IMU,26885.760,59.875,-8.850,-17.578,-0.18457,1.23388,-0.07763,28.59
$IMU,26885.763,56.030,-14.221,-17.089,-0.19677,1.24072,-0.01953,28.59
$IMU,26885.765,49.804,-19.226,-15.991,-0.20703,1.21044,-0.04736,28.59
$IMU,26885.767,44.006,-26.123,-14.831,-0.20410,1.18798,-0.03320,28.59
$IMU,26885.770,37.292,-29.968,-14.160,-0.16943,1.15625,-0.03955,28.59
$IMU,26885.772,30.517,-32.043,-13.427,-0.13964,1.12353,-0.09326,28.59
$IMU,26885.774,25.146,-33.020,-13.366,-0.11621,1.08740,-0.13232,28.64
$BARO,26885.777,86864.33,28.75
$IMU,26885.777,21.057,-30.822,-14.221,-0.07128,1.06347,-0.15478,28.64
$IMU,26885.779,18.554,-25.817,-14.953,-0.03808,1.03173,-0.21289,28.64
$IMU,26885.781,18.981,-20.263,-15.197,-0.01318,1.02050,-0.25634,28.64
$MAG,26885.784,-0.559,-0.523,-0.471,26.0
$IMU,26885.784,21.972,-14.282,-15.441,-0.00439,1.01123,-0.28125,28.64
$IMU,26885.786,27.099,-8.789,-15.441,0.00390,1.00341,-0.30224,28.64
$IMU,26885.788,33.569,-4.272,-15.136,-0.00097,0.99804,-0.32031,28.64
$IMU,26885.791,40.527,-1.770,-14.526,-0.01074,0.99560,-0.33251,28.64
$IMU,26885.793,47.546,-1.281,-13.610,-0.03027,0.99707,-0.33789,28.63
$MAG,26885.794,-0.558,-0.528,-0.477,27.3
$IMU,26885.795,54.016,-2.807,-12.512,-0.05078,1.00244,-0.33447,28.63
$IMU,26885.798,60.058,-5.798,-11.535,-0.07080,1.00878,-0.33105,28.63
$IMU,26885.800,65.734,-9.765,-10.925,-0.09521,1.02050,-0.31689,28.63
$IMU,26885.802,71.166,-13.854,-10.437,-0.12011,1.02294,-0.30078,28.63
$MAG,26885.804,-0.558,-0.528,-0.477,27.3
$IMU,26885.805,76.049,-16.418,-10.620,-0.13720,1.03027,-0.27880,28.63
$IMU,26885.807,80.749,-15.991,-11.596,-0.16943,1.02685,-0.27148,28.63
$IMU,26885.809,87.036,-17.028,-12.329,-0.51464,0.86523,-0.34228,28.63
$IMU,26885.812,98.327,-26.672,-12.390,-0.58496,0.85791,-0.32031,28.68
$MAG,26885.814,-0.555,-0.519,-0.468,27.3
$IMU,26885.814,108.947,-34.179,-16.418,-0.58251,1.01025,-0.24072,28.68
$IMU,26885.816,113.830,-38.696,-21.667,-0.54687,1.12646,-0.25048,28.68
$IMU,26885.819,112.121,-40.893,-26.794,-0.44921,1.20898,-0.24902,28.68
$IMU,26885.821,106.933,-42.663,-30.761,-0.36962,1.21533,-0.23388,28.68
$HUM,26885.822,34.6,29.2
$IMU,26885.823,102.416,-46.325,-33.142,-0.28564,1.20117,-0.21728,28.68
$MAG,26885.824,-0.549,-0.523,-0.441,27.6
$IMU,26885.826,99.365,-51.025,-34.423,-0.21142,1.20507,-0.19775,28.68
$IMU,26885.828,96.923,-56.152,-34.362,-0.13964,1.20263,-0.18359,28.68
$IMU,26885.831,93.872,-58.837,-33.935,-0.04443,1.20507,-0.16943,28.62
$IMU,26885.833,90.209,-58.288,-33.386,0.01025,1.18212,-0.16650,28.62
$MAG,26885.834,-0.552,-0.528,-0.448,27.6
$IMU,26885.835,86.425,-54.321,-33.020,0.11767,1.18994,-0.14794,28.62
$IMU,26885.838,81.787,-44.799,-33.630,0.15136,1.17871,-0.14306,28.62
$IMU,26885.840,78.002,-33.752,-33.325,0.11914,1.11914,-0.16845,28.62
$IMU,26885.842,76.477,-22.583,-32.470,0.09082,1.10986,-0.15625,28.62
$MAG,26885.844,-0.543,-0.529,-0.438,27.5
$IMU,26885.845,76.171,-11.901,-32.043,0.07861,1.17382,-0.12646,28.62
$IMU,26885.847,74.707,-2.197,-31.921,0.08007,1.24267,-0.10742,28.62
$IMU,26885.849,70.922,5.737,-25.573,0.57031,1.97998,-0.01611,28.64
$IMU,26885.852,46.081,-11.535,78.063,0.46972,2.96679,0.26513,28.64
$MAG,26885.854,-0.550,-0.531,-0.427,27.5
$IMU,26885.854,24.963,-39.550,178.100,-0.31884,2.66845,0.04687,28.64
$IMU,26885.856,51.940,-54.565,217.651,-0.15527,1.79248,0.10449,28.64
$IMU,26885.859,72.570,-64.575,238.952,-0.10546,2.00781,0.26123,28.64
$IMU,26885.861,71.411,-63.903,233.581,0.14062,1.34423,0.23144,28.64
$IMU,26885.863,69.458,-52.734,197.204,0.39648,1.37597,0.38476,28.64
$MAG,26885.864,-0.574,-0.516,-0.418,27.6
$IMU,26885.866,55.603,-15.625,121.826,1.14550,2.70654,0.03564,28.64
$IMU,26885.868,50.598,2.075,7.995,0.89111,2.55468,-0.07421,28.63
$IMU,26885.870,42.297,2.685,-81.481,0.47070,1.18994,0.00439,28.63
$IMU,26885.873,38.330,-0.671,-82.092,0.61816,0.50292,-0.04345,28.63
$MAG,26885.874,-0.576,-0.514,-0.417,27.5
$IMU,26885.875,48.217,2.807,-19.409,0.21826,1.09326,-0.11865,28.63
$IMU,26885.877,44.738,4.394,10.192,0.09082,1.47802,-0.13818,28.63
$BARO,26885.879,86868.30,28.75
$IMU,26885.880,34.118,3.662,11.901,0.13183,1.58740,-0.20166,28.63
$IMU,26885.882,20.385,1.464,0.793,0.12890,1.70214,-0.19580,28.63
$IMU,26885.884,9.643,-0.976,-1.281,0.11523,1.49755,-0.14550,28.63
$MAG,26885.885,-0.561,-0.520,-0.412,27.5
$IMU,26885.887,0.244,-2.258,3.295,0.10351,1.58349,-0.03564,28.65
$IMU,26885.889,-5.981,-2.380,0.671,-0.00585,1.37304,-0.07519,28.65
$IMU,26885.892,-4.272,-2.441,-0.427,0.01513,1.33105,-0.08447,28.65
$IMU,26885.894,-1.586,-2.319,-3.662,0.06738,1.27099,-0.08544,28.65
$MAG,26885.895,-0.565,-0.523,-0.423,27.6
$IMU,26885.896,-1.525,-1.098,-4.394,0.00390,1.21777,-0.09960,28.65
$IMU,26885.899,-4.028,-0.244,-0.305,-0.00097,1.17285,-0.09326,28.65
$IMU,26885.901,-9.582,-0.366,3.479,-0.06298,1.13378,-0.09667,28.65
$IMU,26885.903,-15.808,-0.732,4.821,-0.06738,1.10742,-0.09423,28.65
$MAG,26885.905,-0.570,-0.511,-0.417,27.5
$IMU,26885.906,-22.827,-0.915,5.676,-0.04736,1.14111,-0.09326,28.67
$IMU,26885.908,-29.296,-0.976,4.577,-0.04882,1.07910,-0.09912,28.67
$IMU,26885.910,-34.423,-0.793,4.577,-0.03027,1.07812,-0.10205,28.67
$IMU,26885.913,-37.597,-0.732,6.896,-0.00585,1.04785,-0.11230,28.67
$MAG,26885.915,-0.565,-0.519,-0.424,27.5
$IMU,26885.915,-38.574,-0.671,9.460,0.00390,0.99365,-0.10546,28.67
$IMU,26885.917,-39.611,-0.610,10.375,-0.00439,0.97607,-0.09863,28.67
$IMU,26885.920,-40.527,-0.610,9.765,-0.01318,0.91894,-0.11132,28.67
$IMU,26885.922,-41.198,-0.488,10.009,-0.02441,0.87158,-0.11767,28.67
$IMU,26885.924,-38.513,0.000,13.671,0.04980,0.78466,-0.28417,28.69
$MAG,26885.925,-0.570,-0.513,-0.426,27.5
$IMU,26885.927,-24.597,-3.295,22.216,0.07714,0.85107,-0.35400,28.69
$IMU,26885.929,-9.460,-4.943,26.550,0.09765,0.93994,-0.36914,28.69
$IMU,26885.931,4.028,-4.577,26.000,0.09863,0.88671,-0.37451,28.69
$IMU,26885.934,16.540,-3.540,23.254,0.10351,0.85302,-0.31347,28.69
$MAG,26885.935,-0.576,-0.511,-0.417,27.6
$IMU,26885.936,25.024,-0.610,20.507,0.14208,0.73828,-0.35253,28.69
$IMU,26885.938,35.644,0.671,20.202,0.14355,0.74462,-0.30664,28.69
$IMU,26885.941,44.006,2.197,19.287,0.13281,0.76416,-0.31103,28.69
$IMU,26885.943,49.621,3.173,16.052,0.10595,0.80810,-0.29199,28.66
$MAG,26885.945,-0.577,-0.508,-0.417,27.5
$IMU,26885.945,53.283,2.563,11.901,0.07324,0.84619,-0.27734,28.66
$IMU,26885.948,54.748,1.464,7.263,0.05175,0.81884,-0.21044,28.66
$IMU,26885.950,54.016,0.305,4.882,0.02392,0.79785,-0.15039,28.66
$IMU,26885.953,51.208,-0.488,2.990,0.00048,0.81982,-0.07177,28.66
$MAG,26885.955,-0.567,-0.519,-0.409,27.5
$IMU,26885.955,45.593,0.122,-0.305,-0.04101,0.85009,-0.03906,28.66
$IMU,26885.957,39.916,0.366,-5.310,-0.07031,0.87500,-0.02880,28.66
$IMU,26885.960,33.081,1.159,-11.901,-0.08740,0.95166,0.02880,28.66
$IMU,26885.962,24.658,3.845,-22.827,-0.06445,0.94628,-0.00683,28.65
$IMU,26885.964,20.751,6.652,-32.775,-0.06494,0.95166,-0.01562,28.65
$MAG,26885.965,-0.576,-0.517,-0.409,27.5
$IMU,26885.967,18.371,10.559,-39.306,-0.05957,0.95507,-0.07128,28.65
$IMU,26885.969,15.441,10.437,-36.499,-0.01513,1.02001,-0.06347,28.65
$IMU,26885.971,7.568,-0.915,-10.864,0.01416,1.02441,-0.05615,28.65
$IMU,26885.974,-1.403,-11.108,13.427,-0.03955,1.01660,-0.01806,28.65
$MAG,26885.975,-0.571,-0.519,-0.403,27.5
$IMU,26885.976,-3.051,-11.291,17.456,-0.06103,1.08984,0.05664,28.65
$IMU,26885.978,-6.103,-4.394,9.277,-0.05615,1.07910,0.05029,28.65
$BARO,26885.981,86864.72,28.75
$IMU,26885.981,-4.150,-0.793,-0.366,-0.06689,0.94726,-0.17285,28.66
$IMU,26885.983,7.324,-4.516,-4.394,-0.08642,0.99414,-0.24023,28.66
$MAG,26885.985,-0.576,-0.514,-0.412,27.3
$IMU,26885.985,11.596,-12.023,-4.638,-0.04394,1.11767,-0.19580,28.66
$IMU,26885.988,3.417,-17.333,-6.286,-0.03125,1.13867,-0.17187,28.66
$IMU,26885.990,-6.042,-19.897,-7.751,-0.01074,0.99511,-0.24169,28.66
$IMU,26885.992,-11.474,-19.165,-7.202,-0.00292,0.92041,-0.24755,28.66
$MAG,26885.995,-0.571,-0.514,-0.408,27.3
$IMU,26885.995,-19.104,-13.854,-5.065,0.04589,1.02880,-0.08300,28.66
$IMU,26885.997,-35.522,-4.638,-3.112,0.08642,1.03369,-0.07226,28.66
$IMU,26885.999,-49.438,4.394,-2.746,0.08007,1.04687,-0.04296,28.62
$IMU,26886.002,-60.180,13.671,-5.065,0.11230,1.01464,-0.07373,28.62
$IMU,26886.004,-65.612,19.226,-5.004,0.11621,0.96142,-0.13916,28.62
$MAG,26886.006,-0.565,-0.517,-0.417,27.6
$IMU,26886.006,-65.856,23.864,-6.225,0.12451,1.00878,-0.05908,28.62
$IMU,26886.009,-67.321,25.573,-7.385,0.13818,0.99218,-0.14990,28.62
$IMU,26886.011,-64.514,22.521,-4.028,0.11035,1.02441,-0.14257,28.62
$IMU,26886.014,-63.110,14.892,-1.647,0.07324,1.00146,-0.19531,28.62
$MAG,26886.016,-0.568,-0.519,-0.424,27.5
$IMU,26886.016,-53.710,4.821,-0.671,0.07128,0.97216,-0.22558,28.62
$IMU,26886.018,-39.245,-2.868,-2.258,0.08935,0.99707,-0.19726,28.70
$IMU,26886.021,-25.024,-6.469,-6.713,0.08740,1.04003,-0.16650,28.70
$IMU,26886.023,-13.977,-10.742,-12.512,0.08447,1.02050,-0.10791,28.70
$IMU,26886.025,-11.352,-17.761,-13.854,0.07861,1.06591,-0.04882,28.70
$MAG,26886.026,-0.576,-0.513,-0.424,27.5
$IMU,26886.028,-14.160,-28.930,-10.009,0.06103,1.12988,-0.00634,28.70
$IMU,26886.030,-22.644,-37.963,-6.713,0.05810,1.14160,0.02197,28.70
$IMU,26886.032,-33.935,-43.273,-6.347,0.01953,1.15576,0.12158,28.70
$IMU,26886.035,-53.527,-48.461,-5.432,0.00683,1.12500,0.16552,28.70
$MAG,26886.036,-0.567,-0.519,-0.430,27.6
$IMU,26886.037,-73.852,-57.861,0.183,0.01953,1.02392,0.06445,28.66
$IMU,26886.039,-81.115,-64.453,8.056,0.03710,0.99169,-0.01562,28.66
$IMU,26886.042,-77.331,-62.866,9.033,0.04541,1.03906,0.07617,28.66
$IMU,26886.044,-78.369,-56.518,3.540,0.07226,1.07421,0.18115,28.66
$MAG,26886.046,-0.573,-0.517,-0.432,27.6
$IMU,26886.046,-87.219,-49.743,-2.380,0.04736,1.07812,0.21777,28.66
$IMU,26886.049,-94.299,-43.273,-7.995,0.03466,1.03125,0.10693,28.66
$IMU,26886.051,-92.224,-41.870,-8.239,0.07275,0.95751,-0.01562,28.66
$IMU,26886.053,-77.087,-42.297,-0.549,0.06201,0.95068,-0.07812,28.66
$MAG,26886.056,-0.573,-0.522,-0.438,27.5
$IMU,26886.056,-53.649,-39.428,5.310,0.09277,1.06347,0.00244,28.73
$IMU,26886.058,-39.916,-31.921,2.014,0.05419,1.12695,0.06201,28.73
$IMU,26886.060,-31.799,-24.658,-4.394,0.05224,1.11767,0.03027,28.73
$IMU,26886.063,-22.888,-17.150,-10.070,0.12304,1.07910,-0.08691,28.73
$IMU,26886.065,-9.216,-19.287,-7.324,0.13183,1.03417,-0.08154,28.73
$MAG,26886.066,-0.573,-0.513,-0.432,27.6
$IMU,26886.067,-2.746,-27.221,-0.244,0.10839,1.05322,-0.04492,28.73
$IMU,26886.070,-0.061,-30.639,4.272,0.12060,1.14208,0.05126,28.73
$IMU,26886.072,-2.197,-23.498,0.427,0.12402,1.17724,0.03271,28.73
$IMU,26886.075,-0.183,-20.324,-4.882,0.05712,1.13476,-0.08544,28.69
$MAG,26886.076,-0.570,-0.523,-0.442,27.6
$IMU,26886.077,9.826,-22.094,-6.835,0.00439,0.99462,-0.16503,28.69
$IMU,26886.079,28.869,-27.038,-2.197,-0.00341,0.91357,-0.18945,28.69
$BARO,26886.082,86865.13,28.75
$IMU,26886.082,56.457,-31.555,6.713,-0.00732,0.85009,-0.20556,28.69
$IMU,26886.084,83.007,-28.625,8.117,-0.15722,1.02441,0.07568,28.69
$MAG,26886.086,-0.568,-0.525,-0.432,27.6
$IMU,26886.086,89.477,-19.287,-6.958,-0.14794,0.93994,0.21972,28.69
$IMU,26886.089,84.960,-20.996,-13.732,-0.11035,0.87597,0.35644,28.69
$IMU,26886.091,67.871,-32.165,-9.765,-0.08691,0.93359,0.53076,28.69
$IMU,26886.093,45.593,-47.668,-1.342,-0.07373,0.92529,0.43945,28.70
$MAG,26886.096,-0.580,-0.516,-0.417,27.6
$IMU,26886.096,36.010,-58.044,5.554,-0.05371,0.84863,0.27392,28.70
$IMU,26886.098,41.381,-60.546,7.568,-0.05566,0.90869,0.21533,28.70
$IMU,26886.100,49.743,-55.297,4.333,-0.02734,1.00000,0.18115,28.70
$IMU,26886.103,56.640,-46.386,-2.746,0.00292,1.01025,0.12841,28.70
$IMU,26886.105,62.011,-37.048,-7.507,-0.02539,1.01953,0.12792,28.70
$MAG,26886.106,-0.565,-0.520,-0.412,27.6
$IMU,26886.107,62.683,-30.822,-8.911,-0.03613,1.00878,0.13232,28.70
$IMU,26886.110,62.500,-29.724,-3.479,-0.04687,0.95312,0.11425,28.70
$IMU,26886.112,60.302,-30.822,4.394,-0.06396,1.03027,0.18164,28.70
$IMU,26886.114,51.757,-31.066,7.385,-0.04345,0.99951,0.19482,28.70
$MAG,26886.117,-0.565,-0.519,-0.402,27.6
$IMU,26886.117,45.227,-29.174,6.286,-0.02392,0.95068,0.18505,28.70
$IMU,26886.119,31.005,-30.578,6.896,-0.00830,0.99462,0.34521,28.70
$IMU,26886.121,9.826,-33.569,10.681,-0.04345,1.02197,0.33154,28.70
$IMU,26886.124,-13.366,-31.799,10.131,-0.02880,1.04394,0.40332,28.70
$IMU,26886.126,-35.400,-27.770,8.178,0.03613,0.99951,0.34375,28.70
$MAG,26886.127,-0.565,-0.517,-0.405,27.5
$IMU,26886.128,-50.048,-18.676,7.568,0.06396,1.00048,0.35937,28.70
$IMU,26886.131,-62.561,-5.554,7.263,0.06835,0.97314,0.29492,28.69
$IMU,26886.133,-65.979,3.662,6.713,0.04296,0.93310,0.09960,28.69
$IMU,26886.136,-60.119,7.751,4.821,0.04248,0.96728,0.07910,28.69
$MAG,26886.137,-0.570,-0.520,-0.417,27.6
$IMU,26886.138,-55.114,9.399,3.051,0.04150,0.97460,0.08593,28.69
$IMU,26886.140,-50.720,9.826,2.014,0.03515,0.98144,0.08642,28.69
$IMU,26886.143,-47.607,8.605,2.014,0.03759,1.00683,0.08544,28.69
$IMU,26886.145,-45.227,7.324,2.197,0.05468,1.02685,0.08105,28.69
$MAG,26886.147,-0.565,-0.516,-0.420,27.7
$IMU,26886.147,-42.968,6.164,2.075,0.06005,1.03173,0.07568,28.69
$IMU,26886.150,-41.503,3.845,1.159,0.09472,1.10888,0.06591,28.74
$IMU,26886.152,-40.039,1.037,-2.563,0.20263,1.36718,0.03710,28.74
$IMU,26886.154,-39.550,0.061,-8.544,0.15673,1.29443,-0.03710,28.74
$MAG,26886.157,-0.570,-0.516,-0.421,27.6
$IMU,26886.157,-42.663,-0.366,-9.399,0.07373,1.19140,-0.07568,28.74
$IMU,26886.159,-47.607,-1.708,-4.943,-0.00976,1.13916,-0.08789,28.74
$IMU,26886.161,-50.842,-7.446,1.708,-0.03857,1.19775,-0.08251,28.74
$IMU,26886.164,-54.382,-10.131,3.723,0.02490,1.46826,0.06982,28.74
$IMU,26886.166,-57.373,-2.197,0.488,0.01220,1.30957,0.00781,28.74
$MAG,26886.167,-0.573,-0.522,-0.432,27.7
$IMU,26886.168,-54.809,-2.441,-2.563,-0.04443,1.06494,-0.12207,28.69
$IMU,26886.171,-45.898,-9.887,-3.601,-0.01416,0.93798,-0.15869,28.69
$IMU,26886.173,-35.522,-16.967,-2.685,0.01123,0.85742,-0.20166,28.69
$IMU,26886.175,-23.986,-25.939,-1.342,0.02929,0.85546,-0.17871,28.69
$MAG,26886.177,-0.558,-0.522,-0.438,27.6
$IMU,26886.178,-16.601,-34.851,-2.441,0.05468,0.86132,-0.15722,28.69
$IMU,26886.180,-19.104,-44.494,-1.770,0.05566,0.93457,-0.02734,28.69
$IMU,26886.182,-27.954,-49.621,-0.732,0.07275,0.90673,-0.02734,28.69
$BARO,26886.184,86864.87,28.75
$IMU,26886.185,-34.301,-53.466,-0.427,0.02294,0.90576,-0.06982,28.69
$MAG,26886.187,-0.562,-0.528,-0.429,27.7
$IMU,26886.187,-38.940,-59.387,-2.136,0.00341,0.92333,0.02587,28.69
$IMU,26886.189,-46.203,-64.147,-3.051,-0.02001,0.92041,-0.08251,28.69
$IMU,26886.192,-47.058,-68.786,-1.708,-0.00439,0.92578,-0.07373,28.69
$IMU,26886.194,-41.625,-71.472,-1.037,0.06103,0.94287,-0.12353,28.69
$MAG,26886.197,-0.570,-0.520,-0.427,27.6
$IMU,26886.197,-35.034,-74.768,-0.976,0.07910,0.97558,-0.11230,28.69
$IMU,26886.199,-31.188,-77.026,-3.234,0.07763,0.98388,-0.11328,28.69
$IMU,26886.201,-29.968,-80.383,-6.225,0.04394,0.97705,-0.13867,28.69
$IMU,26886.204,-28.564,-85.754,-8.483,0.05468,0.98388,-0.08837,28.69
$IMU,26886.206,-28.381,-90.759,-6.835,0.08496,0.98144,-0.05957,28.72
$MAG,26886.207,-0.559,-0.516,-0.433,27.6
$IMU,26886.208,-27.526,-93.505,-3.173,0.05761,0.99707,0.00439,28.72
$IMU,26886.211,-26.611,-95.092,-3.784,0.09765,0.97265,0.05908,28.72
$IMU,26886.213,-25.512,-93.627,-5.493,0.10400,1.01416,0.17968,28.72
$IMU,26886.215,-27.404,-88.317,-9.460,0.02880,1.04492,0.18798,28.72
$MAG,26886.217,-0.568,-0.513,-0.412,27.7
$IMU,26886.218,-27.648,-89.050,-12.390,0.06396,0.94677,0.08056,28.72
$IMU,26886.220,-12.512,-89.416,-8.056,0.05712,0.87744,0.10058,28.72
$IMU,26886.222,4.089,-87.402,-3.479,0.08300,0.88916,0.18017,28.72
$IMU,26886.225,13.610,-85.083,-1.586,0.10400,0.90771,0.28173,28.73
$IMU,26886.227,17.333,-78.002,-2.502,0.08300,0.92187,0.30371,28.73
$MAG,26886.228,-0.571,-0.519,-0.426,27.6
$IMU,26886.229,18.981,-67.993,-6.958,-0.02783,1.03173,0.43261,28.73
$IMU,26886.232,14.282,-62.805,-9.643,-0.02001,0.95996,0.32031,28.73
$IMU,26886.234,14.465,-56.091,-6.286,-0.03173,1.00927,0.41406,28.73
$IMU,26886.236,12.329,-44.921,-4.028,-0.06250,1.06445,0.35058,28.73
$MAG,26886.238,-0.562,-0.522,-0.417,27.7
$IMU,26886.239,7.873,-37.963,-3.417,-0.08105,1.07470,0.33593,28.73
$IMU,26886.241,4.638,-31.188,-3.601,-0.08447,1.10351,0.31250,28.73
$IMU,26886.243,0.793,-24.536,-4.638,-0.07666,1.08105,0.31103,28.67
$IMU,26886.246,-0.427,-18.310,-3.295,-0.06298,1.03808,0.24365,28.67
$MAG,26886.248,-0.562,-0.513,-0.420,27.6
$IMU,26886.248,2.685,-13.671,-0.854,-0.03759,1.05029,0.23339,28.67
$IMU,26886.250,4.943,-8.728,-0.183,-0.01318,1.05810,0.23535,28.67
$IMU,26886.253,6.103,-4.089,-0.488,-0.00292,1.04150,0.21435,28.67
$IMU,26886.255,8.544,-0.793,-0.488,-0.01269,1.04248,0.16845,28.67
$IMU,26886.257,11.840,-0.366,-0.427,-0.00683,1.04882,0.14892,28.67
$MAG,26886.258,-0.561,-0.517,-0.418,27.6
$IMU,26886.260,14.892,-0.305,-0.488,-0.00830,1.03955,0.13378,28.67
$IMU,26886.262,17.700,-0.244,-0.610,-0.01513,1.01318,0.12158,28.69
$IMU,26886.265,20.141,-0.549,-0.244,-0.01855,1.02490,0.11279,28.69
$IMU,26886.267,22.094,-0.427,-0.061,-0.01953,1.04492,0.10058,28.69
$MAG,26886.268,-0.552,-0.525,-0.408,27.5
$IMU,26886.269,23.376,-0.366,-0.122,-0.02539,1.03320,0.08886,28.69
$IMU,26886.272,24.353,-0.244,0.122,-0.03808,1.00585,0.08154,28.69
$IMU,26886.274,25.085,-0.244,0.976,-0.04248,0.96972,0.06640,28.69
$IMU,26886.276,25.268,-0.366,2.197,-0.04199,0.96728,0.05810,28.69
$MAG,26886.278,-0.562,-0.516,-0.405,27.6
$IMU,26886.279,24.902,-0.366,2.868,-0.03027,0.96972,0.05468,28.69
$IMU,26886.281,24.291,-0.366,3.112,-0.01708,0.99414,0.04101,28.70
$IMU,26886.283,23.132,-0.366,2.563,-0.01416,1.02490,0.03369,28.70
$BARO,26886.285,86871.18,28.75
$IMU,26886.286,21.667,-0.061,2.197,-0.02001,1.01318,0.02392,28.70
$MAG,26886.288,-0.562,-0.513,-0.403,27.6
$IMU,26886.288,20.202,-0.122,2.868,-0.02587,0.99462,0.00878,28.70
$IMU,26886.290,18.432,-0.244,4.211,-0.01953,1.00146,-0.00292,28.70
$IMU,26886.293,16.418,-0.244,5.432,-0.00781,1.01074,-0.00781,28.70
$IMU,26886.295,14.465,-0.122,6.164,0.01220,1.02636,-0.01416,28.70
$IMU,26886.297,12.451,-0.122,6.164,0.02685,1.01660,-0.01611,28.70
$MAG,26886.298,-0.568,-0.516,-0.406,27.7
$IMU,26886.300,10.742,0.000,5.920,0.03906,1.02001,-0.00976,28.71
$IMU,26886.302,9.216,0.122,5.554,0.04589,1.02880,0.00195,28.71
$IMU,26886.304,7.995,0.122,5.126,0.04980,1.02490,0.00781,28.71
$IMU,26886.307,7.324,-0.122,5.187,0.05371,1.01953,0.01855,28.71
$MAG,26886.308,-0.565,-0.525,-0.420,27.6
$IMU,26886.309,7.019,-0.061,5.310,0.06103,1.03710,0.01806,28.71
$IMU,26886.311,6.530,-0.061,5.187,0.06445,1.04833,0.01220,28.71
$IMU,26886.314,5.859,-0.122,5.676,0.04248,0.86572,-0.00488,28.71
$IMU,26886.316,5.859,-0.244,7.263,0.04638,0.82617,-0.00146,28.71
$MAG,26886.318,-0.565,-0.511,-0.412,27.6
$IMU,26886.318,5.798,-0.305,7.202,0.08789,0.94921,0.00830,28.71
$IMU,26886.321,5.126,-0.244,4.028,0.10498,1.03173,0.00927,28.71
$IMU,26886.323,4.272,0.000,-0.061,0.09130,1.05712,0.00878,28.71
$IMU,26886.326,3.234,0.122,-2.502,0.05908,1.04492,0.01318,28.71
$MAG,26886.328,-0.570,-0.522,-0.412,27.7
$IMU,26886.328,2.197,0.305,-1.770,0.02294,0.97070,0.00830,28.71
$IMU,26886.330,1.586,0.122,0.732,0.02978,0.95117,0.00878,28.71
$IMU,26886.333,0.732,-0.061,2.685,0.05615,0.97998,0.01171,28.71
$IMU,26886.335,-0.366,-0.183,2.624,0.08496,1.01318,0.01367,28.71
$IMU,26886.337,-1.647,-0.122,0.000,0.09423,1.04589,0.00537,28.72
$MAG,26886.339,-0.567,-0.516,-0.408,27.7
$IMU,26886.340,-3.173,-0.061,-3.051,0.07226,1.04589,0.00781,28.72
$IMU,26886.342,-4.272,0.122,-4.516,0.04052,1.02685,0.00976,28.72
$IMU,26886.344,-5.187,0.000,-3.784,0.01416,1.02246,0.01660,28.72
$IMU,26886.347,-6.286,0.000,-1.770,0.00292,1.03466,0.00976,28.72
$MAG,26886.349,-0.570,-0.520,-0.405,27.6
$IMU,26886.349,-7.690,0.000,-0.061,-0.00048,1.04052,0.01611,28.72
$IMU,26886.351,-8.850,-0.244,0.549,0.01123,1.04394,0.02490,28.72
$IMU,26886.354,-9.643,0.000,-0.122,0.01855,1.04833,0.02783,28.72
$IMU,26886.356,-10.314,0.061,-1.342,0.01513,1.04150,0.02441,28.70
$IMU,26886.358,-10.681,0.000,-2.014,0.01318,1.03515,0.03808,28.70
$MAG,26886.359,-0.559,-0.519,-0.405,27.6
$IMU,26886.361,-10.192,0.122,-1.586,0.00585,1.03222,0.06054,28.70
$IMU,26886.363,-8.850,0.061,-0.671,0.00878,1.04443,0.07373,28.70
$IMU,26886.365,-7.202,-0.183,-0.244,0.01806,1.06884,0.07568,28.70
$IMU,26886.368,-5.615,-0.061,-0.305,0.02001,1.08984,0.07714,28.70
$MAG,26886.369,-0.567,-0.522,-0.405,27.6
$IMU,26886.370,-4.272,-0.061,-0.915,0.02050,1.10595,0.07812,28.70
$IMU,26886.372,-3.173,-0.183,-1.403,0.00976,1.10058,0.07421,28.70
$IMU,26886.375,-2.075,-0.061,-1.220,-0.00488,1.08642,0.07617,28.71
$IMU,26886.377,-0.671,-0.061,-0.549,-0.00878,1.07080,0.07177,28.71
$MAG,26886.379,-0.565,-0.517,-0.406,27.6
$IMU,26886.379,0.610,-0.122,0.122,-0.00732,1.05810,0.06689,28.71
$IMU,26886.382,1.464,-0.061,0.549,-0.00830,1.04492,0.06347,28.71
$IMU,26886.384,2.319,-0.305,0.854,-0.00683,1.03027,0.06591,28.71
$BARO,26886.386,86864.26,28.75
$IMU,26886.387,2.929,-0.305,0.976,-0.00195,1.00097,0.06103,28.71
$MAG,26886.389,-0.562,-0.523,-0.412,27.6
$IMU,26886.389,3.662,-0.122,1.342,0.00439,1.00878,0.05859,28.71
$IMU,26886.391,3.967,-0.183,1.464,0.01562,1.01220,0.04833,28.71
$IMU,26886.394,3.967,-0.244,1.586,0.01464,0.98730,0.03808,28.73
$IMU,26886.396,3.967,-0.244,2.014,0.01025,0.96972,0.03417,28.73
$IMU,26886.398,3.845,-0.183,2.441,0.01318,0.95947,0.02392,28.73
$MAG,26886.399,-0.565,-0.516,-0.415,27.6
$IMU,26886.401,3.540,-0.305,2.807,0.02001,0.95166,0.01953,28.73
$IMU,26886.403,2.868,-0.244,2.868,0.02880,0.94140,0.00976,28.73
$IMU,26886.405,1.953,-0.305,2.563,0.03515,0.93652,0.00537,28.73
$IMU,26886.408,0.854,-0.305,2.136,0.02978,0.94677,0.00683,28.73
$MAG,26886.409,-0.565,-0.517,-0.405,27.6
$IMU,26886.410,-0.122,-0.305,1.708,0.02050,0.95166,0.00195,28.73
$IMU,26886.412,-1.281,-0.244,1.647,0.01220,0.94726,0.00292,28.74
$IMU,26886.415,-2.319,-0.305,1.892,0.01123,0.95654,0.00585,28.74
$IMU,26886.417,-2.990,-0.183,2.441,0.01855,0.97070,0.00927,28.74
$MAG,26886.419,-0.571,-0.519,-0.399,27.6
$IMU,26886.419,-3.601,0.000,2.624,0.03222,0.99072,0.01074,28.74
$IMU,26886.422,-4.028,-0.122,2.258,0.04687,0.99560,0.01269,28.74
$IMU,26886.424,-4.699,-0.122,1.464,0.05712,1.00000,0.01123,28.74
$IMU,26886.426,-5.676,0.061,0.488,0.06689,1.00439,0.01806,28.74
$MAG,26886.429,-0.565,-0.516,-0.414,27.6
$IMU,26886.429,-6.164,0.122,-0.244,0.07031,1.00439,0.03027,28.74
$IMU,26886.431,-6.225,0.061,-0.793,0.06982,1.00732,0.03710,28.69
$IMU,26886.433,-5.981,0.061,-1.220,0.06494,1.01220,0.04443,28.69
$IMU,26886.436,-5.615,0.000,-1.708,0.05908,1.01367,0.04833,28.69
$IMU,26886.438,-5.004,0.061,-2.319,0.05566,1.00830,0.05517,28.69
$MAG,26886.439,-0.564,-0.522,-0.418,27.6
$IMU,26886.440,-4.089,-0.061,-2.929,0.04541,1.00585,0.06250,28.69
$IMU,26886.443,-2.746,0.000,-3.479,0.03808,0.99755,0.06933,28.69
$IMU,26886.445,-1.159,0.000,-3.967,0.03125,0.99853,0.07470,28.69
$IMU,26886.448,0.671,0.122,-4.455,0.02392,0.99365,0.06933,28.69
$MAG,26886.450,-0.574,-0.514,-0.412,27.6
$IMU,26886.450,2.197,0.061,-4.760,0.01953,0.99462,0.06201,28.72
$IMU,26886.452,3.356,0.122,-4.882,0.01904,1.00390,0.05273,28.72
$IMU,26886.455,3.723,0.122,-4.821,0.01708,1.02490,0.03759,28.72
$IMU,26886.457,3.112,0.000,-4.272,0.00341,1.02246,0.02392,28.72
$IMU,26886.459,2.014,-0.061,-3.479,0.00292,1.01416,0.01416,28.72
$MAG,26886.460,-0.559,-0.522,-0.418,27.7
$IMU,26886.462,0.427,0.000,-3.051,0.00244,0.99853,0.01464,28.72
$IMU,26886.464,-0.915,-0.183,-2.807,0.00244,1.00341,0.02294,28.72
$IMU,26886.466,-2.014,0.061,-2.685,-0.00195,1.00634,0.03466,28.72
$IMU,26886.469,-2.380,0.061,-2.380,-0.00927,1.01025,0.04345,28.71
$MAG,26886.470,-0.556,-0.517,-0.417,27.7
$IMU,26886.471,-2.380,-0.122,-1.770,-0.01416,1.01367,0.04492,28.71
$IMU,26886.473,-2.319,-0.061,-1.220,-0.00585,1.03076,0.04296,28.71
$IMU,26886.476,-2.197,0.061,-0.915,0.00195,1.04296,0.04345,28.71
$IMU,26886.478,-2.319,-0.183,-0.976,0.00878,1.04345,0.04492,28.71
$MAG,26886.480,-0.564,-0.514,-0.418,27.5
$IMU,26886.480,-2.563,0.061,-0.854,0.01171,1.04052,0.04443,28.71
$IMU,26886.483,-2.563,0.061,-0.549,0.01171,1.04443,0.04785,28.71
$IMU,26886.485,-2.380,-0.305,-0.366,0.00976,1.05078,0.05664,28.71
$IMU,26886.487,-1.953,-0.244,-0.183,0.01367,1.04833,0.05712,28.69
$BARO,26886.488,86873.32,28.75
$MAG,26886.490,-0.561,-0.523,-0.408,27.7
$IMU,26886.490,-1.525,-0.061,-0.183,0.01611,1.04443,0.05957,28.69
$IMU,26886.492,-0.671,-0.244,-0.366,0.01660,1.04101,0.06005,28.69
$IMU,26886.494,0.122,-0.122,-0.549,0.01904,1.03564,0.05712,28.69
$IMU,26886.497,0.671,0.061,-0.671,0.02148,1.03613,0.04785,28.69
$IMU,26886.499,0.915,-0.183,-0.671,0.02832,1.03955,0.03906,28.69
$MAG,26886.500,-0.565,-0.525,-0.417,27.7
$IMU,26886.501,0.488,-0.122,-0.488,0.03320,1.04394,0.02685,28.69
$IMU,26886.504,-0.366,0.000,-0.549,0.03759,1.03808,0.01855,28.69
$IMU,26886.506,-1.586,-0.061,-0.793,0.04589,1.03417,0.01416,28.72
$IMU,26886.509,-2.868,-0.061,-1.037,0.04736,1.03027,0.01074,28.72
$MAG,26886.510,-0.564,-0.519,-0.420,27.6
$IMU,26886.511,-4.211,-0.061,-1.281,0.04345,1.02099,0.01123,28.72
$IMU,26886.513,-5.371,-0.122,-1.342,0.03906,1.01562,0.01611,28.72
$IMU,26886.516,-6.408,-0.183,-1.281,0.03222,1.00878,0.01904,28.72
$IMU,26886.518,-7.263,-0.061,-1.464,0.03320,1.01220,0.02685,28.72
$MAG,26886.520,-0.564,-0.517,-0.412,27.6
$IMU,26886.520,-7.934,-0.244,-1.464,0.02832,1.01562,0.02734,28.72
$IMU,26886.523,-8.605,-0.244,-1.647,0.03173,1.01123,0.02783,28.72
$IMU,26886.525,-9.277,0.000,-1.892,0.03271,1.00683,0.02587,28.73
$IMU,26886.527,-9.887,-0.061,-2.136,0.02832,1.00292,0.02490,28.73
$MAG,26886.530,-0.571,-0.523,-0.415,27.6
$IMU,26886.530,-10.192,-0.061,-2.319,0.02783,0.99609,0.03076,28.73
$IMU,26886.532,-10.559,0.061,-2.319,0.02050,0.99707,0.03271,28.73
$IMU,26886.534,-10.498,0.000,-2.258,0.01953,0.99560,0.03662,28.73
$IMU,26886.537,-10.314,0.183,-2.014,0.01318,0.99755,0.03906,28.73
$IMU,26886.539,-10.070,0.244,-2.014,0.01416,0.99414,0.04492,28.73
$MAG,26886.540,-0.562,-0.513,-0.414,27.6
$IMU,26886.541,-9.826,0.244,-2.014,0.01416,0.99658,0.05029,28.73
$IMU,26886.544,-9.399,0.305,-1.953,0.00732,0.99072,0.05126,28.74
$IMU,26886.546,-8.972,0.488,-1.892,0.00585,0.99365,0.05468,28.74
$IMU,26886.548,-8.300,0.610,-1.708,0.00585,0.99169,0.05810,28.74
$MAG,26886.550,-0.561,-0.526,-0.414,27.6
$IMU,26886.551,-7.446,2.136,-1.464,0.01464,0.98486,0.06201,28.74
$IMU,26886.553,-5.554,4.943,-1.220,0.04150,0.97900,0.06298,28.74
$IMU,26886.555,-2.624,10.742,0.122,0.07714,0.97363,0.06347,28.74
$IMU,26886.558,1.708,19.470,2.136,0.08496,0.97412,0.06347,28.74
$IMU,26886.560,5.310,28.747,2.441,0.06933,0.98730,0.05566,28.74
$MAG,26886.561,-0.564,-0.526,-0.412,27.6
$IMU,26886.562,9.033,39.367,0.427,0.09375,0.96923,0.03857,28.73
$IMU,26886.565,12.207,48.889,0.000,0.05859,0.97900,0.02929,28.73
$IMU,26886.567,12.512,52.978,-0.915,0.00537,0.99218,0.01367,28.73
$IMU,26886.570,10.559,52.001,-1.464,-0.00195,0.97851,0.00390,28.73
$MAG,26886.571,-0.567,-0.519,-0.421,27.6
$IMU,26886.572,7.995,49.499,-0.183,-0.03320,0.98730,0.00439,28.73
$IMU,26886.574,4.943,44.921,1.403,-0.02246,0.98437,-0.02050,28.73
$IMU,26886.577,6.225,44.616,3.662,0.01318,0.98095,-0.01074,28.73
$IMU,26886.579,8.605,48.217,5.004,-0.01171,1.01757,0.03613,28.73
$MAG,26886.581,-0.561,-0.522,-0.412,27.6
$IMU,26886.581,5.859,47.729,2.807,-0.04882,1.03222,0.03173,28.73
$IMU,26886.584,1.037,39.184,1.464,-0.04931,1.01806,0.01171,28.73
$IMU,26886.586,-2.319,29.663,2.563,-0.04443,1.01025,0.01562,28.73
$IMU,26886.588,-4.028,21.728,4.577,-0.03417,1.02050,0.02441,28.73
$BARO,26886.589,86864.94,28.75
$MAG,26886.591,-0.562,-0.514,-0.421,27.7
$IMU,26886.591,-4.333,16.296,6.286,-0.02294,1.04101,0.03808,28.73
$IMU,26886.593,-4.516,11.840,6.347,-0.01269,1.05957,0.04980,28.73
$IMU,26886.595,-5.432,8.728,4.882,-0.00048,1.06835,0.05371,28.73
$IMU,26886.598,-6.896,6.835,3.479,-0.00195,1.06689,0.06689,28.73
$IMU,26886.600,-8.911,4.455,2.624,0.01220,1.04736,0.03613,28.72
$MAG,26886.601,-0.573,-0.525,-0.421,27.6
$IMU,26886.602,-6.958,1.647,3.417,0.03027,1.02978,0.01660,28.72
$IMU,26886.605,-3.967,0.427,4.516,0.01708,1.03808,0.08642,28.72
$IMU,26886.607,-5.249,0.549,3.845,0.03515,1.02392,0.07812,28.72
$IMU,26886.609,-3.601,0.976,3.601,0.04394,1.02685,0.04638,28.72
$MAG,26886.611,-0.561,-0.520,-0.421,27.5
$IMU,26886.612,-1.220,0.976,3.234,0.04736,1.03564,0.06005,28.72
$IMU,26886.614,1.525,1.708,2.441,0.05664,1.03857,0.05810,28.72
$IMU,26886.616,3.295,2.502,1.647,0.04394,1.02734,0.04150,28.72
$IMU,26886.619,4.943,1.708,1.220,0.02587,1.02001,0.05322,28.69
$MAG,26886.621,-0.570,-0.520,-0.418,27.6
$IMU,26886.621,4.150,1.037,0.976,0.02929,1.02392,0.05761,28.69
$IMU,26886.623,3.784,1.403,1.403,0.04345,1.01562,0.02050,28.69
$IMU,26886.626,5.859,1.159,2.563,0.04638,1.02832,0.02490,28.69
$IMU,26886.628,5.615,3.601,2.075,0.02539,1.04052,0.07324,28.69
$MAG,26886.631,-0.564,-0.514,-0.421,27.6
$IMU,26886.631,3.051,6.408,-0.305,0.01611,1.01269,0.02050,28.69
$IMU,26886.633,3.723,4.821,-0.671,0.01806,0.99462,0.00048,28.69
$IMU,26886.635,6.713,4.943,0.183,0.02001,0.98535,-0.03076,28.69
$IMU,26886.638,11.901,5.310,0.732,0.01708,0.99414,-0.02490,28.70
$IMU,26886.640,13.000,6.469,0.183,0.01513,1.01855,0.07910,28.70
$MAG,26886.641,-0.568,-0.516,-0.414,27.7
$IMU,26886.642,9.826,12.512,-1.525,0.01806,0.98876,0.04296,28.70
$VBAT,26886.643,4.119
$IMU,26886.645,10.559,16.601,-2.136,0.01611,0.96826,-0.00244,28.70
$IMU,26886.647,12.573,19.287,-1.647,0.00878,0.97558,0.06494,28.70
$IMU,26886.649,10.681,22.094,-0.976,0.01318,0.97167,0.02734,28.70
$MAG,26886.651,-0.568,-0.517,-0.420,27.7
$IMU,26886.652,11.169,24.658,0.000,0.00878,0.98583,0.02539,28.70
$IMU,26886.654,10.498,27.648,0.183,0.01708,0.99121,0.03222,28.70
$IMU,26886.656,10.498,30.029,-0.122,0.03125,0.99804,0.01904,28.73
$IMU,26886.659,10.437,32.470,-0.854,0.01904,1.01806,0.08007,28.73
$MAG,26886.661,-0.568,-0.522,-0.424,27.7
$IMU,26886.661,7.629,34.667,-2.319,0.01513,1.01220,0.05712,28.73
$IMU,26886.663,8.483,35.095,-2.136,0.02246,1.01220,0.00976,28.73
$IMU,26886.666,11.352,32.958,-0.427,0.01513,1.02734,0.00195,28.73
$IMU,26886.668,11.413,31.066,1.403,0.00390,1.02978,0.05175,28.73
$IMU,26886.670,7.629,27.099,2.441,0.00634,1.00683,-0.00146,28.73
$MAG,26886.672,-0.561,-0.519,-0.414,27.7
$IMU,26886.673,5.004,22.216,2.136,-0.00439,1.00927,0.02978,28.73
$IMU,26886.675,0.427,17.761,0.549,0.00976,0.99169,0.02392,28.75
$IMU,26886.677,-2.136,12.268,-0.549,0.00781,0.98876,0.02099,28.75
$IMU,26886.680,-4.272,5.554,-1.037,0.01611,0.99560,0.03564,28.75
$MAG,26886.682,-0.567,-0.516,-0.423,27.6
$IMU,26886.682,-4.943,-1.647,-1.403,0.02148,1.00244,-0.00634,28.75
$IMU,26886.684,-1.770,-9.582,-2.014,0.03564,1.00292,-0.04541,28.75
$IMU,26886.687,3.112,-17.150,-2.258,0.04150,1.00878,-0.00732,28.75
$IMU,26886.689,1.647,-21.484,-1.953,0.04541,1.01562,0.08544,28.75
$BARO,26886.691,86867.55,28.75
$IMU,26886.691,-2.990,-21.240,-2.319,0.03857,0.99511,0.04931,28.75
$MAG,26886.692,-0.559,-0.511,-0.421,27.7
$IMU,26886.694,-3.723,-21.301,-2.563,0.05419,0.98291,0.03320,28.74
$IMU,26886.696,-3.234,-20.263,-2.380,0.04785,0.99414,0.02832,28.74
$IMU,26886.699,-2.563,-19.653,-2.929,0.04394,1.00048,0.02343,28.74
$IMU,26886.701,-2.014,-19.287,-2.441,0.04443,0.99609,0.00000,28.74
$MAG,26886.702,-0.561,-0.526,-0.424,27.7
$IMU,26886.703,-0.305,-19.531,-1.586,0.03613,1.00634,0.02832,28.74
$IMU,26886.706,-3.662,-17.211,-2.136,0.02587,1.00195,0.10351,28.74
$IMU,26886.708,-7.263,-13.671,-2.929,0.03222,0.97802,0.00634,28.74
$IMU,26886.710,-3.906,-11.108,-2.319,0.05371,0.99951,0.04443,28.74
$MAG,26886.712,-0.565,-0.517,-0.409,27.6
$IMU,26886.713,-2.685,-5.310,-2.624,0.03955,1.00439,0.06298,28.71
$IMU,26886.715,0.183,-1.037,-3.601,0.05126,0.99218,-0.01025,28.71
$IMU,26886.717,4.333,0.183,-3.356,0.03710,1.00830,0.05224,28.71
$IMU,26886.720,3.112,-0.427,-3.540,0.03027,0.99365,0.00976,28.71
$MAG,26886.722,-0.567,-0.522,-0.418,27.7
$IMU,26886.722,5.493,0.122,-3.234,0.02929,0.99707,-0.00439,28.71
$IMU,26886.724,7.141,2.746,-3.112,0.01220,1.01123,0.07031,28.71
$IMU,26886.727,5.249,6.164,-3.112,0.02246,1.00390,0.04003,28.71
$IMU,26886.729,6.896,7.202,-1.586,0.03808,1.01123,-0.01660,28.71
$IMU,26886.731,9.399,6.225,-0.122,0.00488,1.04150,0.02832,28.77
$MAG,26886.732,-0.567,-0.514,-0.423,27.7
$IMU,26886.734,6.347,4.333,-0.976,-0.01953,1.05859,0.08789,28.77
$IMU,26886.736,0.488,3.845,-2.319,-0.03710,1.05126,0.11425,28.77
$IMU,26886.738,-5.432,0.732,-1.953,-0.03955,1.04687,0.04687,28.77
$IMU,26886.741,-6.774,-4.821,-0.305,-0.03857,1.05224,0.06689,28.77
$MAG,26886.742,-0.559,-0.514,-0.418,27.7
$IMU,26886.743,-7.019,-7.751,0.854,-0.01562,1.04882,0.06347,28.77
$IMU,26886.745,-5.615,-9.460,1.220,0.00830,1.05078,0.03857,28.77
$IMU,26886.748,-1.037,-11.108,1.037,0.03613,1.03564,0.02050,28.77
$IMU,26886.750,3.051,-11.596,0.427,0.03759,1.03662,0.05517,28.71
$MAG,26886.752,-0.561,-0.514,-0.420,27.6
$IMU,26886.752,4.272,-10.803,-0.427,0.03906,1.03564,0.05371,28.71
$IMU,26886.755,3.295,-10.864,-0.854,-0.00537,1.03613,0.07910,28.71
$IMU,26886.757,-0.793,-13.366,-1.647,0.00390,1.02539,0.04541,28.71
$IMU,26886.760,-1.953,-13.854,-0.976,0.01806,1.02636,0.01953,28.71
$MAG,26886.762,-0.558,-0.523,-0.423,27.7
$IMU,26886.762,0.366,-14.099,1.159,0.03271,1.02050,-0.02490,28.71
$IMU,26886.764,3.723,-14.343,2.990,0.04736,1.04296,0.02832,28.71
$IMU,26886.767,4.638,-10.986,2.014,0.05957,1.05517,0.02636,28.71
$IMU,26886.769,4.028,-8.422,-0.732,0.05224,1.04443,0.04931,28.73
$IMU,26886.771,-1.647,-6.652,-3.234,-0.00195,1.02050,0.05224,28.73
$MAG,26886.772,-0.556,-0.520,-0.415,27.7
$IMU,26886.774,-10.009,-10.131,-3.723,-0.04687,1.00634,-0.00048,28.73
$IMU,26886.776,-12.329,-16.845,-0.610,-0.02099,0.98388,-0.07275,28.73
$IMU,26886.778,-9.277,-23.193,4.455,-0.00976,1.02441,0.00195,28.73
$IMU,26886.781,-12.207,-25.634,4.638,-0.02832,1.03662,0.05126,28.73
$MAG,26886.783,-0.567,-0.529,-0.417,27.7
$IMU,26886.783,-15.319,-26.916,1.892,-0.00488,0.98828,0.01269,28.73
$IMU,26886.785,-15.930,-27.770,1.525,0.00634,1.00000,0.02246,28.73
$IMU,26886.788,-14.587,-28.503,2.319,0.03271,0.99951,0.00390,28.76
$IMU,26886.790,-13.183,-29.357,3.417,0.04394,1.00195,-0.00976,28.76
$BARO,26886.792,86869.57,28.75
$IMU,26886.792,-11.413,-32.043,2.685,0.03564,1.01708,0.04150,28.76
$MAG,26886.793,-0.562,-0.516,-0.417,27.7
$IMU,26886.795,-13.305,-33.691,-0.305,0.04296,0.98242,-0.00097,28.76
$IMU,26886.797,-8.544,-36.315,-0.366,0.05029,0.96240,0.00634,28.76
$IMU,26886.799,-7.019,-36.743,1.098,0.03662,1.00830,0.16650,28.76
$IMU,26886.802,-9.277,-29.602,0.366,0.05957,0.98437,0.08398,28.76
$MAG,26886.803,-0.570,-0.511,-0.415,27.6
$IMU,26886.804,-4.089,-24.719,0.488,0.06298,1.00146,0.06054,28.76
$IMU,26886.806,1.098,-21.362,-0.671,0.06591,1.00976,0.10058,28.73
$IMU,26886.809,3.112,-16.601,-2.685,0.05761,1.01562,0.12695,28.73
$IMU,26886.811,3.967,-10.620,-4.150,0.01220,1.00927,0.11328,28.73
$MAG,26886.813,-0.553,-0.522,-0.414,27.6
$IMU,26886.813,3.845,-6.774,-5.065,-0.00927,1.01708,0.10839,28.73
$IMU,26886.816,3.906,-4.882,-4.211,-0.00048,1.01660,0.07617,28.73
$IMU,26886.818,5.493,-2.868,-2.441,0.01367,1.00830,0.07080,28.73
$IMU,26886.821,7.751,0.549,-1.037,0.03515,1.00585,0.05957,28.73
$MAG,26886.823,-0.559,-0.523,-0.412,27.6
$IMU,26886.823,8.239,4.516,-1.037,0.01318,1.03320,0.11865,28.73
$IMU,26886.825,3.601,6.408,-3.051,-0.00390,1.02246,0.11230,28.77
$IMU,26886.828,1.037,6.713,-4.394,0.01757,1.00488,0.03808,28.77
$IMU,26886.830,4.455,6.469,-3.234,0.03955,1.00439,0.00000,28.77
$IMU,26886.832,9.216,6.835,-2.136,0.03564,1.01171,0.04687,28.77
$MAG,26886.833,-0.568,-0.516,-0.402,27.6
$IMU,26886.835,9.094,8.178,-2.990,0.02343,1.00244,0.09960,28.77
$IMU,26886.837,5.310,8.666,-4.089,0.01757,0.99414,0.07128,28.77
$HUM,26886.838,34.8,29.1
$IMU,26886.839,1.586,5.981,-4.211,-0.00048,1.00195,0.07373,28.77
$IMU,26886.842,-0.793,3.356,-3.723,0.00781,1.00488,0.03076,28.77
$MAG,26886.843,-0.556,-0.525,-0.418,27.7
$IMU,26886.844,1.220,0.061,-2.075,0.02880,1.00146,0.00732,28.73
$IMU,26886.846,4.211,-2.014,-0.793,0.02099,1.01025,0.06103,28.73
$IMU,26886.849,3.662,-2.624,-1.342,0.02587,0.99511,0.05957,28.73
$IMU,26886.851,3.112,-2.807,-2.258,-0.01269,1.01904,0.08447,28.73
$MAG,26886.853,-0.556,-0.519,-0.420,27.7
$IMU,26886.853,0.000,-3.234,-3.845,0.00244,1.00634,0.04736,28.73
$IMU,26886.856,1.281,-3.906,-2.868,0.01367,0.99267,0.03906,28.73
$IMU,26886.858,2.441,-3.540,-1.586,0.00341,1.01708,0.07617,28.73
$IMU,26886.860,1.647,-2.807,-1.464,-0.00341,1.00195,0.06201,28.73
$MAG,26886.863,-0.559,-0.508,-0.412,27.6
$IMU,26886.863,1.586,-2.197,-1.281,0.00683,0.99218,0.05566,28.73
$IMU,26886.865,2.502,-1.464,-0.488,0.00341,1.00585,0.06201,28.73
$IMU,26886.867,3.051,-0.183,0.122,0.00244,1.01757,0.07324,28.73
$IMU,26886.870,2.685,1.037,0.000,-0.01171,1.02099,0.08593,28.73
$IMU,26886.872,1.037,1.403,-0.976,-0.03564,1.02685,0.09765,28.73
$MAG,26886.873,-0.564,-0.517,-0.414,27.6
$IMU,26886.874,-0.549,0.305,-2.014,-0.03173,1.01953,0.07080,28.73
$IMU,26886.877,-0.244,-0.427,-1.525,-0.02001,1.01464,0.06542,28.73
$IMU,26886.879,0.366,0.061,-0.061,-0.02148,1.01562,0.05957,28.73
$IMU,26886.882,1.159,-0.122,1.098,-0.01611,1.01660,0.05224,28.73
$MAG,26886.883,-0.559,-0.531,-0.415,27.7
$IMU,26886.884,1.586,-0.122,1.586,-0.00781,1.01708,0.04687,28.73
$IMU,26886.886,1.464,0.061,1.708,0.00000,1.01464,0.04199,28.73
$IMU,26886.889,1.159,-0.061,1.464,0.01074,1.00927,0.03564,28.73
$IMU,26886.891,0.854,-0.244,1.281,0.01171,1.01074,0.03369,28.73
$IMU,26886.893,0.427,-0.122,1.342,0.00927,1.00781,0.03320,28.73
$BARO,26886.894,86870.16,28.75
$MAG,26886.894,-0.565,-0.520,-0.409,27.7
$IMU,26886.896,0.000,-0.061,1.586,0.00585,1.00585,0.03173,28.73
$IMU,26886.898,-0.183,-0.305,2.258,0.00830,1.00439,0.03222,28.73
$IMU,26886.900,-0.549,-0.427,3.051,0.00000,1.00537,0.03369,28.73
$IMU,26886.903,-0.976,-0.366,3.906,0.00683,1.01269,0.03515,28.73
$MAG,26886.904,-0.561,-0.522,-0.409,27.6
$IMU,26886.905,-1.464,-0.366,4.272,0.01318,1.01806,0.03222,28.73
$IMU,26886.907,-2.075,-0.183,3.967,0.02685,1.01953,0.03466,28.73
$IMU,26886.910,-2.258,-0.122,3.295,0.02734,1.01757,0.04052,28.73
$IMU,26886.912,-1.892,-0.183,2.746,0.02539,1.00585,0.05224,28.73
$MAG,26886.914,-0.553,-0.522,-0.415,27.7
$IMU,26886.914,-0.915,-0.122,2.685,0.02636,1.01269,0.05517,28.73
$IMU,26886.917,0.183,-0.122,2.929,0.02783,1.04785,0.05566,28.73
$IMU,26886.919,1.525,-0.183,2.685,0.04492,1.11083,0.05664,28.72
$IMU,26886.921,3.051,-0.183,1.342,0.05224,1.12207,0.05419,28.72
$MAG,26886.924,-0.558,-0.510,-0.417,27.7
$IMU,26886.924,4.150,-0.183,-0.427,0.05859,1.09960,0.04687,28.72
$IMU,26886.926,4.760,0.000,-1.770,0.04931,1.05859,0.04980,28.72
$IMU,26886.928,5.371,-0.122,-2.380,0.04101,1.00830,0.06005,28.72
$IMU,26886.931,6.164,-0.183,-2.075,0.03125,0.99169,0.05908,28.72
$IMU,26886.933,7.263,-0.122,-1.281,0.02783,0.98583,0.05468,28.72
$MAG,26886.934,-0.565,-0.514,-0.408,27.7
$IMU,26886.935,8.789,-0.366,-0.854,0.01025,0.91699,0.04931,28.72
$IMU,26886.938,10.192,-0.122,-1.159,-0.00146,0.89355,0.04931,28.75
$IMU,26886.940,11.291,-0.061,-1.220,0.00732,0.94921,0.05175,28.75
$IMU,26886.943,11.718,0.000,-1.525,0.00830,1.03955,0.02929,28.75
$MAG,26886.944,-0.559,-0.519,-0.408,27.7
$IMU,26886.945,10.681,-0.305,-2.807,0.02050,1.03466,0.01269,28.75
$IMU,26886.947,8.911,-0.061,-3.112,0.02685,0.97265,0.00000,28.75
$IMU,26886.950,7.263,0.000,-2.502,0.01367,0.95361,-0.00146,28.75
$IMU,26886.952,5.859,-0.183,-1.220,0.00390,0.94775,0.00146,28.75
$MAG,26886.954,-0.565,-0.534,-0.414,27.7
$IMU,26886.954,4.760,-0.061,0.915,-0.00195,0.96923,-0.00195,28.75
$IMU,26886.957,3.784,-0.061,2.380,0.00878,0.99511,0.00244,28.77
$IMU,26886.959,2.990,-0.305,2.258,0.01513,1.02343,0.01123,28.77
$IMU,26886.961,1.953,-0.305,1.403,0.01953,1.03369,0.01953,28.77
$MAG,26886.964,-0.559,-0.517,-0.408,27.7
$IMU,26886.964,0.915,-0.061,0.122,0.01953,1.02978,0.02832,28.77
$IMU,26886.966,0.427,-0.244,-0.854,0.01611,1.02294,0.03369,28.77
$IMU,26886.968,0.000,0.000,-0.793,0.01025,1.01953,0.04150,28.77
$IMU,26886.971,0.244,-0.061,-0.244,0.00878,1.01220,0.04296,28.77
$IMU,26886.973,0.854,-0.244,0.732,0.01025,1.00878,0.04199,28.77
$MAG,26886.974,-0.565,-0.519,-0.403,27.7
$IMU,26886.975,1.708,-0.183,1.647,0.01562,1.01025,0.04296,28.75
$IMU,26886.978,2.502,0.000,1.892,0.02294,1.02099,0.03808,28.75
$IMU,26886.980,3.112,0.122,1.708,0.03076,1.02099,0.03955,28.75
$IMU,26886.982,3.723,0.000,0.915,0.03515,1.01513,0.04150,28.75
$MAG,26886.984,-0.561,-0.520,-0.406,27.6
$IMU,26886.985,4.089,0.000,-0.244,0.03515,1.00390,0.04296,28.75
$IMU,26886.987,4.699,-0.183,-1.281,0.03466,0.99609,0.04541,28.75
$IMU,26886.989,5.432,-0.244,-1.892,0.02978,0.99755,0.04736,28.75
$IMU,26886.992,6.164,-0.305,-1.770,0.02343,0.99267,0.04785,28.75
$MAG,26886.994,-0.567,-0.520,-0.406,27.7
$IMU,26886.994,6.896,-0.427,-1.342,0.02050,0.99414,0.04541,28.76
$BARO,26886.995,86862.31,28.75
$IMU,26886.996,7.446,-0.122,-0.976,0.01806,0.99853,0.03662,28.76
$IMU,26886.999,7.995,-0.183,-0.915,0.01904,0.99951,0.02929,28.76
$IMU,26887.001,8.239,-0.122,-1.159,0.01855,1.00048,0.02050,28.76
$MAG,26887.004,-0.565,-0.529,-0.412,27.7
$IMU,26887.004,8.178,-0.061,-1.647,0.02392,1.01123,0.01660,28.76
$IMU,26887.006,7.690,0.122,-2.197,0.02001,1.02050,0.01318,28.76
$IMU,26887.008,7.263,-0.061,-2.380,0.01562,1.02246,0.01318,28.76
$IMU,26887.011,6.591,-0.183,-2.197,0.01416,1.02783,0.01269,28.76
$IMU,26887.013,5.920,0.000,-1.770,0.01562,1.02978,0.01562,28.71
$MAG,26887.015,-0.559,-0.526,-0.412,27.6
$IMU,26887.015,5.249,-0.122,-1.342,0.01611,1.02490,0.01464,28.71
$IMU,26887.018,4.577,-0.183,-0.976,0.01953,1.01757,0.01416,28.71
$IMU,26887.020,3.845,0.000,-0.854,0.01660,1.01220,0.01904,28.71
$IMU,26887.022,3.234,0.061,-0.976,0.02294,1.01269,0.02099,28.71
$MAG,26887.025,-0.564,-0.526,-0.408,27.7
$IMU,26887.025,2.685,0.000,-1.220,0.02148,1.02197,0.02539,28.71
$IMU,26887.027,2.502,-0.122,-1.464,0.02099,1.02832,0.02929,28.71
$IMU,26887.029,2.624,-0.183,-1.586,0.01904,1.03125,0.03857,28.71
$IMU,26887.032,3.173,-0.305,-1.647,0.02001,1.02734,0.04101,28.74
$IMU,26887.034,3.845,0.000,-1.525,0.01611,1.02441,0.04345,28.74
$MAG,26887.035,-0.559,-0.520,-0.406,27.7
$IMU,26887.036,5.004,-0.061,-1.342,0.00732,1.01953,0.04150,28.74
$IMU,26887.039,5.920,-0.183,-0.854,0.00537,1.02246,0.04199,28.74
$IMU,26887.041,6.835,-0.122,-0.305,0.00781,1.02490,0.03906,28.74
$IMU,26887.043,7.202,-0.061,0.000,0.01123,1.02832,0.03564,28.74
$MAG,26887.045,-0.567,-0.519,-0.414,27.6
$IMU,26887.046,7.751,-0.061,-0.061,0.02050,1.02685,0.03662,28.74
$IMU,26887.048,8.300,-0.183,-0.610,0.02343,1.02734,0.03369,28.74
$IMU,26887.050,8.911,-0.122,-1.220,0.02246,1.02978,0.03466,28.75
$IMU,26887.053,9.521,-0.183,-1.525,0.02001,1.02734,0.03515,28.75
$MAG,26887.055,-0.559,-0.525,-0.408,27.6
$IMU,26887.055,10.070,-0.244,-1.464,0.01708,1.02343,0.03271,28.75
$IMU,26887.057,10.375,-0.183,-1.098,0.01123,1.02148,0.02929,28.75
$IMU,26887.060,10.681,-0.122,-0.732,0.01220,1.02001,0.02685,28.75
$IMU,26887.062,10.803,-0.244,-0.244,0.00683,1.00097,0.01953,28.75
$MAG,26887.065,-0.558,-0.513,-0.414,27.7
$IMU,26887.065,10.559,-0.183,0.366,0.00439,1.00781,0.00878,28.75
$IMU,26887.067,9.948,-0.366,0.793,0.00781,1.00488,0.00683,28.75
$IMU,26887.069,9.155,-0.366,0.854,0.01171,1.00292,0.00585,28.76
$IMU,26887.072,8.422,-0.183,0.793,0.01416,0.99804,-0.00195,28.76
$IMU,26887.074,7.385,-0.122,0.793,0.01171,1.00195,-0.00390,28.76
$MAG,26887.075,-0.567,-0.519,-0.405,27.7
$IMU,26887.076,6.408,-0.183,0.610,0.01708,0.99511,-0.00634,28.76
$IMU,26887.079,5.249,-0.183,0.427,0.01611,0.99951,-0.01123,28.76
$IMU,26887.081,3.845,-0.061,0.488,0.01855,1.00244,-0.01318,28.76
$IMU,26887.083,2.380,-0.122,0.305,0.01367,1.00390,-0.01318,28.76
$MAG,26887.085,-0.561,-0.523,-0.408,27.7
$IMU,26887.086,0.793,-0.122,0.244,0.01904,1.00830,-0.01513,28.76
$IMU,26887.088,-0.854,-0.061,0.305,0.02099,1.00878,-0.01318,28.75
$IMU,26887.090,-2.563,-0.122,0.122,0.02099,1.01806,-0.01318,28.75
$IMU,26887.093,-4.211,0.000,0.122,0.01269,1.02001,-0.01318,28.75
$MAG,26887.095,-0.558,-0.517,-0.414,27.6
$IMU,26887.095,-5.859,0.000,0.183,0.01074,1.02001,-0.00781,28.75
$BARO,26887.097,86866.55,28.75
$IMU,26887.097,-7.385,0.000,0.366,0.00927,1.01708,-0.00683,28.75
$IMU,26887.100,-8.666,-0.183,0.549,0.01123,1.02050,-0.00097,28.75
$IMU,26887.102,-10.070,-0.122,0.732,0.01416,1.02539,-0.00195,28.75
$IMU,26887.104,-11.352,-0.061,0.854,0.01660,1.02490,0.00292,28.75
$MAG,26887.105,-0.564,-0.523,-0.397,27.6
$IMU,26887.107,-12.451,0.061,0.793,0.01806,1.02246,0.00537,28.73
$IMU,26887.109,-13.305,-0.122,0.732,0.02099,1.02001,0.01269,28.73
$IMU,26887.111,-13.916,0.061,0.732,0.01855,1.01123,0.01953,28.73
$IMU,26887.114,-14.160,0.122,0.976,0.01904,1.01708,0.02392,28.73
$MAG,26887.115,-0.567,-0.519,-0.408,27.7
$IMU,26887.116,-13.793,-0.122,1.159,0.01757,1.02246,0.02880,28.73
$IMU,26887.118,-13.366,0.000,1.403,0.01757,1.02294,0.03417,28.73
$IMU,26887.121,-12.878,0.183,1.525,0.01611,1.02148,0.03857,28.73
$IMU,26887.123,-12.084,0.122,1.708,0.01757,1.02392,0.04443,28.73
$IMU,26887.125,-11.108,0.000,1.770,0.01611,1.02685,0.04199,28.77
$MAG,26887.126,-0.565,-0.522,-0.403,27.6
$IMU,26887.128,-10.192,0.000,1.647,0.01562,1.02050,0.04394,28.77
$IMU,26887.130,-9.277,-0.061,1.525,0.01757,1.01611,0.04589,28.77
$IMU,26887.133,-8.300,-0.183,1.342,0.01806,1.00537,0.04541,28.77
$IMU,26887.135,-7.385,-0.061,1.281,0.01708,0.99902,0.04248,28.77
$MAG,26887.136,-0.559,-0.519,-0.402,27.7
$IMU,26887.137,-6.469,0.061,1.098,0.02490,1.01025,0.04345,28.77
$IMU,26887.140,-5.249,-0.183,0.854,0.02392,1.00732,0.04785,28.77
$IMU,26887.142,-4.333,-0.305,0.732,0.02734,1.01367,0.04638,28.77
$IMU,26887.144,-3.601,-0.122,0.488,0.02636,1.01074,0.04492,28.74
$MAG,26887.146,-0.568,-0.523,-0.412,27.7
$IMU,26887.147,-2.685,-0.183,0.305,0.02539,1.01464,0.04101,28.74
$IMU,26887.149,-1.770,0.000,0.122,0.02490,1.00976,0.04443,28.74
$IMU,26887.151,-1.037,-0.061,0.000,0.02099,1.01074,0.04345,28.74
$IMU,26887.154,-0.305,-0.061,-0.122,0.01757,1.00732,0.04394,28.74
$MAG,26887.156,-0.567,-0.519,-0.417,27.7
$IMU,26887.156,0.427,-0.244,-0.122,0.01855,1.00195,0.03906,28.74
$IMU,26887.158,1.037,0.000,-0.122,0.01562,1.00390,0.04101,28.74
$IMU,26887.161,1.586,0.244,-0.122,0.01513,1.00585,0.03857,28.74
$IMU,26887.163,2.380,0.061,-0.183,0.01611,1.01025,0.03857,28.79
$IMU,26887.165,2.990,0.061,-0.183,0.01806,1.01123,0.03759,28.79
$MAG,26887.166,-0.571,-0.519,-0.406,27.7
$IMU,26887.168,3.601,-0.122,-0.122,0.01953,1.00488,0.03955,28.79
$IMU,26887.170,3.967,-0.122,-0.244,0.01806,1.01025,0.03808,28.79
$IMU,26887.172,4.516,0.000,-0.366,0.02246,1.02099,0.03564,28.79
$IMU,26887.175,5.004,-0.122,-0.488,0.02294,1.01562,0.04101,28.79
$MAG,26887.176,-0.565,-0.522,-0.408,27.6
$IMU,26887.177,5.615,-0.122,-0.732,0.02246,1.01513,0.03710,28.79
$IMU,26887.179,6.225,-0.244,-0.793,0.02246,1.00927,0.03710,28.79
$IMU,26887.182,6.713,-0.366,-0.854,0.02294,1.00878,0.03515,28.75
$IMU,26887.184,7.141,-0.183,-0.854,0.02050,1.00976,0.03515,28.75
$MAG,26887.186,-0.564,-0.525,-0.408,27.7
$IMU,26887.186,7.812,-0.122,-0.976,0.02050,1.01123,0.03564,28.75
$IMU,26887.189,8.300,-0.061,-0.976,0.01757,1.00781,0.03759,28.75
$IMU,26887.191,8.789,-0.183,-0.976,0.01904,1.01220,0.03466,28.75
$IMU,26887.194,9.338,-0.183,-0.976,0.01708,1.01464,0.03271,28.75
$MAG,26887.196,-0.556,-0.514,-0.406,27.7
$IMU,26887.196,9.521,-0.183,-0.915,0.01806,1.01269,0.02929,28.75
$BARO,26887.198,86868.81,28.74
$IMU,26887.198,9.704,0.000,-0.793,0.01806,1.00976,0.02539,28.75
$IMU,26887.201,9.765,-0.183,-0.732,0.01660,1.01513,0.02148,28.72
$IMU,26887.203,9.643,-0.122,-0.732,0.01611,1.01611,0.01660,28.72
$IMU,26887.205,9.399,-0.061,-0.610,0.01611,1.01416,0.01171,28.72
$MAG,26887.206,-0.555,-0.511,-0.396,27.7
$IMU,26887.208,8.850,-0.061,-0.427,0.02001,1.01611,0.01171,28.72
$IMU,26887.210,8.178,-0.122,-0.305,0.01953,1.01855,0.00683,28.72
$IMU,26887.212,7.324,0.000,-0.183,0.01904,1.01855,0.00244,28.72
$IMU,26887.215,6.408,-0.244,0.000,0.02099,1.01220,0.00048,28.72
$MAG,26887.216,-0.571,-0.516,-0.403,27.8
$IMU,26887.217,5.432,-0.122,0.122,0.02099,1.01367,-0.00048,28.72
$IMU,26887.219,4.333,-0.183,0.122,0.02294,1.00683,0.00000,28.74
$IMU,26887.222,3.173,-0.122,0.122,0.01806,1.00585,-0.00292,28.74
$IMU,26887.224,2.014,-0.061,0.061,0.01904,1.00585,-0.00390,28.74
$MAG,26887.226,-0.559,-0.517,-0.403,27.7
$IMU,26887.226,0.915,-0.061,0.000,0.01757,1.00537,-0.00585,28.74
$IMU,26887.229,-0.183,-0.061,-0.122,0.01904,1.00390,-0.00634,28.74
$IMU,26887.231,-1.281,0.000,-0.122,0.01806,1.00781,-0.00390,28.74
$IMU,26887.233,-2.380,0.061,-0.183,0.01611,1.00830,-0.00195,28.74
$IMU,26887.236,-3.479,0.000,-0.183,0.01416,1.00732,-0.00146,28.74
$MAG,26887.237,-0.556,-0.517,-0.412,27.6
$IMU,26887.238,-4.333,-0.122,-0.061,0.01220,1.00292,0.00097,28.74
$IMU,26887.240,-5.371,-0.061,0.244,0.01708,1.00195,0.00390,28.74
$IMU,26887.243,-6.164,0.000,0.427,0.01562,1.00195,0.00732,28.74
$IMU,26887.245,-6.835,-0.122,0.549,0.01806,1.00195,0.00927,28.74
$MAG,26887.247,-0.565,-0.511,-0.412,27.7
$IMU,26887.247,-7.324,0.061,0.549,0.02001,1.00488,0.01025,28.74
$IMU,26887.250,-7.629,-0.183,0.488,0.02050,1.00830,0.01611,28.74
$IMU,26887.252,-7.873,-0.061,0.305,0.01806,1.00976,0.01806,28.74
$IMU,26887.255,-7.995,0.000,0.183,0.01953,1.01220,0.02343,28.74
$IMU,26887.257,-7.934,-0.061,0.244,0.02441,1.01757,0.02539,28.77
$MAG,26887.257,-0.565,-0.517,-0.406,27.7
$IMU,26887.259,-7.812,-0.061,0.183,0.02197,1.02148,0.02587,28.77
$IMU,26887.262,-7.568,0.000,0.305,0.01953,1.01416,0.02832,28.77
$IMU,26887.264,-7.202,-0.061,0.427,0.02197,1.01806,0.03271,28.77
$IMU,26887.266,-6.774,-0.061,0.488,0.02001,1.02050,0.03369,28.77
$MAG,26887.267,-0.568,-0.522,-0.396,27.7
$IMU,26887.269,-6.164,0.000,0.427,0.02197,1.02099,0.03759,28.77
$IMU,26887.271,-5.676,-0.122,0.305,0.01855,1.01904,0.03662,28.77
$IMU,26887.273,-5.065,-0.183,0.305,0.01953,1.01171,0.04003,28.77
$IMU,26887.276,-4.516,-0.061,0.244,0.01660,1.00439,0.03759,28.75
$MAG,26887.277,-0.570,-0.519,-0.408,27.8
$IMU,26887.278,-3.967,-0.122,0.305,0.01855,1.00097,0.03808,28.75
$IMU,26887.280,-3.356,-0.061,0.366,0.01464,0.99658,0.03759,28.75
$IMU,26887.283,-2.624,-0.122,0.427,0.01904,0.99609,0.03564,28.75
$IMU,26887.285,-1.892,-0.183,0.427,0.01953,0.99853,0.03515,28.75
$MAG,26887.287,-0.573,-0.516,-0.406,27.7
$IMU,26887.287,-1.220,-0.183,0.244,0.02148,1.00097,0.03369,28.75
$IMU,26887.290,-0.488,-0.122,0.000,0.02343,1.00000,0.03417,28.75
$IMU,26887.292,0.122,-0.061,-0.122,0.02099,1.00292,0.03369,28.75
$IMU,26887.294,0.732,-0.122,-0.488,0.01611,0.99902,0.03662,28.74
$MAG,26887.297,-0.559,-0.525,-0.408,27.7
$IMU,26887.297,1.220,-0.061,-0.732,0.01806,0.99462,0.03466,28.74
$BARO,26887.299,86858.14,28.74
$IMU,26887.299,1.708,0.122,-0.854,0.01806,0.99414,0.03857,28.74
$IMU,26887.301,2.319,0.122,-1.037,0.01757,1.00048,0.03710,28.74
$IMU,26887.304,2.990,-0.061,-1.037,0.01953,1.00000,0.03564,28.74
$IMU,26887.306,3.662,0.061,-0.793,0.01953,1.00488,0.03515,28.74
$MAG,26887.307,-0.565,-0.513,-0.409,27.6
$IMU,26887.308,4.394,-0.122,-0.732,0.02343,1.01562,0.03466,28.74
$IMU,26887.311,5.004,-0.183,-0.793,0.01953,1.02539,0.03613,28.74
$IMU,26887.313,5.493,-0.183,-0.976,0.02197,1.02685,0.03369,28.73
$IMU,26887.316,5.798,-0.122,-1.220,0.02490,1.02490,0.03125,28.73
$MAG,26887.317,-0.568,-0.516,-0.409,27.7
$IMU,26887.318,6.103,-0.244,-1.464,0.02294,1.02734,0.02929,28.73
$IMU,26887.320,6.225,-0.244,-1.586,0.01806,1.02587,0.02880,28.73
$IMU,26887.323,6.164,0.000,-1.647,0.02148,1.02392,0.02246,28.73
$IMU,26887.325,6.042,0.000,-1.342,0.01806,1.02929,0.02392,28.73
$MAG,26887.327,-0.565,-0.514,-0.402,27.6
$IMU,26887.327,5.920,-0.122,-1.098,0.01806,1.03125,0.01953,28.73
$IMU,26887.330,5.676,0.000,-0.793,0.01904,1.03369,0.01513,28.73
$IMU,26887.332,5.249,-0.183,-0.549,0.02050,1.03320,0.01318,28.72
$IMU,26887.334,4.760,-0.183,-0.366,0.01708,1.03515,0.01318,28.72
$MAG,26887.337,-0.556,-0.514,-0.406,27.8
$IMU,26887.337,4.028,-0.183,-0.610,0.01318,1.03222,0.01416,28.72
$IMU,26887.339,3.173,-0.061,-0.915,0.01367,1.02539,0.01269,28.72
$IMU,26887.341,2.258,0.000,-1.037,0.01367,1.01660,0.00878,28.72
$IMU,26887.344,1.647,-0.305,-0.732,0.01025,1.01806,0.00585,28.72
$IMU,26887.346,0.793,-0.183,-0.366,0.01318,1.02197,0.00585,28.72
$MAG,26887.348,-0.570,-0.510,-0.408,27.7
$IMU,26887.348,0.122,-0.183,0.122,0.01123,1.01757,0.00634,28.72
$IMU,26887.351,-0.610,-0.122,0.427,0.01513,1.02050,0.00634,28.76
$IMU,26887.353,-1.342,-0.122,0.366,0.01416,1.01855,0.00732,28.76
$IMU,26887.355,-2.075,-0.183,0.305,0.01367,1.01367,0.00878,28.76
$MAG,26887.358,-0.558,-0.513,-0.405,27.7
$IMU,26887.358,-2.868,-0.061,0.183,0.01416,1.01025,0.01025,28.76
$IMU,26887.360,-3.479,0.000,0.061,0.01562,1.00634,0.01220,28.76
$IMU,26887.362,-4.028,-0.061,0.122,0.01416,1.00878,0.01220,28.76
$IMU,26887.365,-4.333,-0.122,0.183,0.01318,1.00244,0.01464,28.76
$IMU,26887.367,-4.638,-0.122,0.305,0.01806,0.99658,0.01953,28.76
$MAG,26887.368,-0.561,-0.522,-0.408,27.7
$IMU,26887.369,-4.882,0.000,0.671,0.01416,0.99462,0.01904,28.73
$IMU,26887.372,-4.821,-0.061,0.793,0.01123,0.99707,0.02050,28.73
$IMU,26887.374,-4.821,-0.122,0.976,0.01757,0.99804,0.02587,28.73
$IMU,26887.377,-4.821,-0.122,0.915,0.01660,0.99755,0.02587,28.73
$MAG,26887.378,-0.564,-0.517,-0.400,27.6
$IMU,26887.379,-4.577,0.000,0.854,0.01611,1.00341,0.02587,28.73
$IMU,26887.381,-4.394,0.000,0.671,0.02099,1.00683,0.02880,28.73
$IMU,26887.384,-4.089,-0.061,0.549,0.02001,1.00927,0.03027,28.73
$IMU,26887.386,-3.845,-0.061,0.427,0.01806,1.01269,0.02929,28.73
$MAG,26887.388,-0.562,-0.517,-0.406,27.6
$IMU,26887.388,-3.417,-0.183,0.305,0.02148,1.00976,0.03466,28.78
$IMU,26887.391,-2.990,-0.183,0.305,0.02539,1.01074,0.03125,28.78
$IMU,26887.393,-2.563,-0.061,0.488,0.02490,1.00927,0.03222,28.78
$IMU,26887.395,-2.075,0.000,0.427,0.02539,1.01464,0.03173,28.78
$MAG,26887.398,-0.562,-0.526,-0.417,27.8
$IMU,26887.398,-1.403,-0.122,0.244,0.02441,1.02490,0.02978,28.78
$IMU,26887.400,-0.915,-0.122,-0.061,0.02392,1.02978,0.03662,28.78
$BARO,26887.401,86871.42,28.74
$IMU,26887.402,-0.366,-0.122,-0.427,0.01855,1.03125,0.03759,28.78
$IMU,26887.405,-0.061,0.061,-0.671,0.02099,1.02783,0.03564,28.78
$IMU,26887.407,0.427,-0.061,-0.671,0.02099,1.03076,0.03759,28.75
$MAG,26887.408,-0.573,-0.517,-0.406,27.8
$IMU,26887.409,0.976,-0.061,-0.610,0.02001,1.02343,0.03320,28.75
$IMU,26887.412,1.464,-0.183,-0.427,0.02050,1.01708,0.03369,28.75
$IMU,26887.414,1.953,-0.122,-0.244,0.01708,1.01757,0.03515,28.75
$IMU,26887.416,2.441,-0.061,-0.183,0.02001,1.01757,0.03369,28.75
$MAG,26887.418,-0.565,-0.510,-0.403,27.6
$IMU,26887.419,2.807,0.000,-0.122,0.02001,1.01318,0.03125,28.75
$IMU,26887.421,3.112,-0.061,-0.244,0.01953,1.01123,0.03125,28.75
$IMU,26887.423,3.417,-0.061,-0.488,0.01660,1.00976,0.02929,28.75
$IMU,26887.426,3.662,-0.183,-0.549,0.01562,1.00976,0.02685,28.79
$MAG,26887.428,-0.568,-0.523,-0.412,27.8
$IMU,26887.428,3.906,-0.244,-0.671,0.01464,1.00927,0.02734,28.79
$IMU,26887.430,3.906,-0.061,-0.549,0.01171,1.00830,0.02636,28.79
$IMU,26887.433,3.906,0.000,-0.427,0.01171,1.00927,0.02099,28.79
$IMU,26887.435,3.906,-0.061,-0.183,0.01318,1.00585,0.01904,28.79
$MAG,26887.438,-0.571,-0.522,-0.402,27.7
$IMU,26887.438,3.845,-0.061,-0.061,0.01513,1.00585,0.02148,28.79
$IMU,26887.440,3.784,-0.122,0.061,0.01416,1.01025,0.01855,28.79
$IMU,26887.442,3.662,-0.122,0.244,0.01757,1.00976,0.02099,28.79
$IMU,26887.445,3.417,-0.183,0.244,0.01562,1.01220,0.01660,28.76
$IMU,26887.447,2.990,0.000,0.244,0.01855,1.01367,0.01562,28.76
$MAG,26887.448,-0.562,-0.525,-0.408,27.8
$IMU,26887.449,2.624,-0.061,0.305,0.01953,1.01025,0.01806,28.76
$IMU,26887.452,2.197,-0.122,0.366,0.01953,1.01220,0.01220,28.76
$IMU,26887.454,1.708,-0.183,0.427,0.01904,1.01367,0.01416,28.76
$IMU,26887.456,1.281,-0.122,0.427,0.01953,1.01660,0.01074,28.76
$MAG,26887.458,-0.556,-0.517,-0.412,27.7
$IMU,26887.459,0.793,-0.061,0.427,0.01611,1.02099,0.01269,28.76
$IMU,26887.461,0.366,-0.061,0.488,0.02148,1.02343,0.01171,28.76
$IMU,26887.463,0.000,-0.183,0.427,0.01904,1.02490,0.01318,28.77
$IMU,26887.466,-0.366,-0.244,0.366,0.01953,1.02343,0.01416,28.77
$IMU,26887.468,-0.854,0.061,0.305,0.01953,1.01562,0.01416,28.77
$MAG,26887.469,-0.562,-0.519,-0.403,27.7
$IMU,26887.470,-1.220,0.000,0.305,0.02099,1.01611,0.01562,28.77
$IMU,26887.473,-1.464,-0.061,0.488,0.02050,1.01269,0.01513,28.77
$IMU,26887.475,-1.647,-0.061,0.671,0.01904,1.00781,0.01464,28.77
$IMU,26887.477,-1.831,-0.183,0.793,0.02099,1.00390,0.01660,28.77
$MAG,26887.479,-0.570,-0.516,-0.409,28.0
$IMU,26887.480,-2.014,-0.061,0.915,0.01806,1.00439,0.01660,28.77
$IMU,26887.482,-2.197,-0.061,0.793,0.02099,1.00292,0.01904,28.76
$IMU,26887.484,-2.258,-0.244,0.671,0.02099,1.00341,0.01953,28.76
$IMU,26887.487,-2.197,-0.122,0.427,0.02441,1.00683,0.01904,28.76
$MAG,26887.489,-0.561,-0.511,-0.417,27.8
$IMU,26887.489,-2.136,-0.122,0.183,0.02197,1.00048,0.02050,28.76
$IMU,26887.491,-1.953,-0.122,0.061,0.01757,0.99902,0.02001,28.76
$IMU,26887.494,-1.770,-0.122,0.000,0.01953,1.00000,0.02197,28.76
$IMU,26887.496,-1.647,0.000,0.061,0.02099,0.99902,0.02246,28.76
$IMU,26887.498,-1.525,-0.061,0.122,0.02001,1.00000,0.02636,28.76
$MAG,26887.499,-0.555,-0.517,-0.409,27.7
$IMU,26887.501,-1.342,0.000,0.183,0.02050,1.00292,0.02783,28.73
$BARO,26887.502,86880.10,28.74
$IMU,26887.503,-1.037,-0.122,0.183,0.01904,1.00634,0.02490,28.73
$IMU,26887.506,-0.915,-0.183,0.061,0.02001,1.00292,0.02734,28.73
$IMU,26887.508,-0.732,-0.122,-0.061,0.02197,1.00634,0.02441,28.73
$MAG,26887.509,-0.562,-0.514,-0.406,27.7
$IMU,26887.510,-0.488,-0.061,-0.183,0.02539,1.00585,0.02587,28.73
$IMU,26887.513,-0.366,0.000,-0.305,0.02392,1.01367,0.02441,28.73
$IMU,26887.515,-0.122,-0.061,-0.366,0.02539,1.01367,0.02685,28.73
$IMU,26887.517,0.061,-0.061,-0.488,0.02148,1.01318,0.02539,28.73
$MAG,26887.519,-0.561,-0.523,-0.405,27.6
$IMU,26887.520,0.183,-0.061,-0.488,0.02392,1.01220,0.02636,28.76
$IMU,26887.522,0.366,0.000,-0.549,0.02343,1.01367,0.02490,28.76
$IMU,26887.524,0.549,0.000,-0.671,0.02197,1.01660,0.02343,28.76
$IMU,26887.527,0.610,-0.061,-0.671,0.02148,1.02099,0.02636,28.76
$MAG,26887.529,-0.559,-0.514,-0.411,27.8
$IMU,26887.529,0.671,0.000,-0.732,0.01611,1.02343,0.02441,28.76
$IMU,26887.531,0.610,0.061,-0.671,0.01660,1.02539,0.02490,28.76
$IMU,26887.534,0.549,-0.061,-0.732,0.01855,1.02636,0.02539,28.76
$IMU,26887.536,0.549,0.061,-0.549,0.01904,1.02636,0.02441,28.76
$IMU,26887.538,0.488,-0.061,-0.366,0.01660,1.02783,0.02441,28.75
$MAG,26887.539,-0.565,-0.519,-0.399,27.7
$IMU,26887.541,0.427,-0.183,-0.244,0.01953,1.02539,0.02294,28.75
$IMU,26887.543,0.305,-0.061,-0.183,0.01660,1.02148,0.02246,28.75
$IMU,26887.545,0.244,-0.183,-0.061,0.01757,1.02050,0.02343,28.75
$IMU,26887.548,0.183,-0.061,-0.122,0.01757,1.01757,0.02197,28.75
$MAG,26887.549,-0.567,-0.517,-0.403,27.7
$IMU,26887.550,0.244,-0.122,-0.061,0.01757,1.01171,0.02001,28.75
$IMU,26887.552,0.244,-0.305,-0.122,0.01464,1.01269,0.02050,28.75
$IMU,26887.555,0.122,-0.122,-0.183,0.01708,1.00927,0.02246,28.75
$IMU,26887.557,0.183,-0.183,-0.061,0.01171,1.00830,0.02343,28.75
$MAG,26887.559,-0.561,-0.522,-0.408,27.7
$IMU,26887.559,0.183,-0.122,0.000,0.01416,1.00097,0.02294,28.75
$IMU,26887.562,0.244,-0.122,0.183,0.01464,0.99902,0.02148,28.75
$IMU,26887.564,0.244,-0.183,0.366,0.01269,0.99707,0.02246,28.75
$IMU,26887.567,0.183,-0.122,0.427,0.01757,0.99804,0.02197,28.75
$MAG,26887.569,-0.561,-0.514,-0.403,27.6
$IMU,26887.569,0.305,-0.183,0.427,0.01806,0.99755,0.02197,28.75
$IMU,26887.571,0.183,-0.061,0.427,0.01953,1.00341,0.01953,28.75
$IMU,26887.574,0.061,-0.061,0.305,0.02294,1.00244,0.01855,28.75
$IMU,26887.576,0.122,-0.183,0.183,0.02294,1.00341,0.01953,28.76
$IMU,26887.578,0.122,-0.183,0.061,0.02490,1.01220,0.02050,28.76
$MAG,26887.580,-0.564,-0.516,-0.402,27.7
$IMU,26887.581,0.061,-0.122,-0.061,0.02246,1.00830,0.02246,28.76
$IMU,26887.583,-0.061,-0.061,-0.061,0.02001,1.00732,0.01855,28.76
$IMU,26887.585,-0.183,0.061,-0.122,0.02343,1.01367,0.01953,28.76
$IMU,26887.588,-0.183,-0.061,-0.244,0.02343,1.01562,0.01904,28.76
$MAG,26887.590,-0.565,-0.519,-0.405,27.6
$IMU,26887.590,-0.244,-0.061,-0.122,0.02441,1.01708,0.01806,28.76
$IMU,26887.592,-0.366,-0.183,-0.122,0.02197,1.01904,0.02001,28.76
$IMU,26887.595,-0.366,-0.122,-0.183,0.02148,1.02099,0.01708,28.79
$IMU,26887.597,-0.488,0.000,-0.244,0.01953,1.02148,0.02050,28.79
$IMU,26887.599,-0.549,-0.061,-0.244,0.02197,1.02148,0.01953,28.79
$MAG,26887.600,-0.558,-0.523,-0.408,27.7
$IMU,26887.602,-0.610,-0.183,-0.366,0.01855,1.01757,0.01953,28.79
$BARO,26887.604,86869.81,28.74
$IMU,26887.604,-0.671,-0.061,-0.305,0.02197,1.01855,0.02099,28.79
$IMU,26887.606,-0.854,0.000,-0.366,0.02099,1.01806,0.02197,28.79
$IMU,26887.609,-0.976,0.000,-0.305,0.01855,1.01562,0.02001,28.79
$MAG,26887.610,-0.568,-0.522,-0.408,27.7
$IMU,26887.611,-1.037,-0.122,-0.305,0.01806,1.01562,0.02099,28.79
$IMU,26887.613,-1.098,-0.122,-0.366,0.01904,1.01757,0.02539,28.80
$IMU,26887.616,-1.098,0.061,-0.366,0.01611,1.01562,0.01953,28.80
$IMU,26887.618,-1.098,0.061,-0.427,0.01464,1.01123,0.02099,28.80
$MAG,26887.620,-0.567,-0.514,-0.409,27.8
$IMU,26887.620,-1.037,0.000,-0.366,0.01708,1.01318,0.02148,28.80
$IMU,26887.623,-1.037,0.000,-0.366,0.01220,1.01318,0.02294,28.80
$IMU,26887.625,-0.976,0.061,-0.305,0.01318,1.00634,0.02294,28.80
$IMU,26887.628,-1.037,0.000,-0.183,0.01269,1.00830,0.02490,28.80
$MAG,26887.630,-0.567,-0.514,-0.409,27.7
$IMU,26887.630,-0.793,-0.183,-0.061,0.01318,1.00439,0.02441,28.80
$IMU,26887.632,-0.671,-0.183,-0.061,0.01123,1.00585,0.02246,28.77
$IMU,26887.635,-0.549,-0.061,0.000,0.01513,1.00830,0.02441,28.77
$IMU,26887.637,-0.488,-0.061,0.000,0.01757,1.00927,0.02392,28.77
$IMU,26887.639,-0.366,-0.061,0.061,0.01953,1.00976,0.02392,28.77
$MAG,26887.640,-0.567,-0.514,-0.400,27.7
$IMU,26887.642,-0.244,-0.061,0.000,0.02001,1.01025,0.02343,28.77
$IMU,26887.644,-0.122,-0.122,0.000,0.01904,1.01123,0.02197,28.77
$IMU,26887.646,0.000,-0.183,0.000,0.01904,1.01171,0.02197,28.77
$IMU,26887.649,0.183,-0.305,0.000,0.01757,1.01220,0.02392,28.77
$VBAT,26887.649,4.130
$MAG,26887.650,-0.573,-0.507,-0.415,27.7
$IMU,26887.651,0.244,-0.305,0.061,0.01806,1.01318,0.02148,28.80
$IMU,26887.653,0.183,0.000,0.122,0.01953,1.01367,0.02148,28.80
$IMU,26887.656,0.366,-0.183,0.061,0.02001,1.01416,0.02343,28.80
$IMU,26887.658,0.366,0.000,-0.061,0.01660,1.01562,0.02636,28.80
$MAG,26887.660,-0.564,-0.519,-0.412,27.6
$IMU,26887.660,0.366,0.000,-0.122,0.02197,1.01757,0.02539,28.80
$IMU,26887.663,0.427,-0.122,-0.122,0.02099,1.01855,0.02343,28.80
$IMU,26887.665,0.488,-0.122,-0.122,0.01953,1.02148,0.02246,28.80
$IMU,26887.667,0.610,-0.183,-0.183,0.02148,1.02099,0.01953,28.80
$MAG,26887.670,-0.570,-0.520,-0.408,27.7
$IMU,26887.670,0.549,-0.061,-0.244,0.02099,1.01904,0.02050,28.76
$IMU,26887.672,0.610,-0.183,-0.244,0.02148,1.01806,0.02197,28.76
$IMU,26887.674,0.549,-0.122,-0.305,0.02197,1.01855,0.01806,28.76
$IMU,26887.677,0.488,-0.122,-0.366,0.02343,1.01318,0.02050,28.76
$IMU,26887.679,0.427,-0.122,-0.305,0.01953,1.01416,0.01953,28.76
$MAG,26887.680,-0.561,-0.517,-0.403,27.7
$IMU,26887.681,0.305,-0.122,-0.305,0.02050,1.01074,0.01904,28.76
$IMU,26887.684,0.244,-0.061,-0.305,0.02001,1.00830,0.02294,28.76
$IMU,26887.686,0.305,-0.244,-0.366,0.01855,1.00927,0.02197,28.76
$IMU,26887.689,0.061,-0.061,-0.305,0.02099,1.00976,0.02197,28.78
$MAG,26887.691,-0.571,-0.516,-0.406,27.6
$IMU,26887.691,0.000,0.000,-0.366,0.02099,1.00683,0.01953,28.78
$IMU,26887.693,-0.061,-0.183,-0.366,0.01660,1.00781,0.01953,28.78
$IMU,26887.696,-0.183,-0.183,-0.244,0.01757,1.00781,0.01855,28.78
$IMU,26887.698,-0.305,-0.122,-0.244,0.01708,1.00976,0.01953,28.78
$IMU,26887.700,-0.427,-0.061,-0.244,0.01757,1.01025,0.01855,28.78
$MAG,26887.701,-0.567,-0.519,-0.408,27.7
$IMU,26887.703,-0.488,-0.061,-0.183,0.01611,1.00976,0.01806,28.78
$BARO,26887.705,86852.09,28.74
$IMU,26887.705,-0.488,-0.244,-0.122,0.01464,1.01269,0.02050,28.78
$IMU,26887.707,-0.549,-0.244,-0.122,0.01708,1.00878,0.01953,28.76
$IMU,26887.710,-0.610,-0.122,-0.122,0.01708,1.01171,0.02050,28.76
$MAG,26887.711,-0.568,-0.523,-0.406,27.7
$IMU,26887.712,-0.854,-0.061,-0.061,0.01855,1.01757,0.02099,28.76
$IMU,26887.714,-0.915,-0.061,-0.061,0.01660,1.01269,0.02099,28.76
$IMU,26887.717,-1.037,-0.061,-0.061,0.01806,1.01611,0.02099,28.76
$IMU,26887.719,-1.098,0.000,0.000,0.02197,1.01269,0.02050,28.76
$MAG,26887.721,-0.567,-0.520,-0.406,27.8
$IMU,26887.721,-1.159,-0.122,-0.061,0.02148,1.01562,0.02539,28.76
$IMU,26887.724,-1.220,-0.122,-0.061,0.02001,1.01757,0.02294,28.76
$IMU,26887.726,-1.281,0.061,0.061,0.01757,1.01953,0.02539,28.77
$IMU,26887.728,-1.220,-0.183,-0.061,0.01806,1.01660,0.02148,28.77
$MAG,26887.731,-0.562,-0.516,-0.406,27.7
$IMU,26887.731,-1.159,-0.244,0.000,0.02099,1.01953,0.02294,28.77
$IMU,26887.733,-1.159,-0.122,0.061,0.02148,1.01611,0.02587,28.77
$IMU,26887.735,-1.037,-0.183,-0.061,0.02050,1.01757,0.02343,28.77
$IMU,26887.738,-1.037,0.061,-0.122,0.01904,1.01806,0.02392,28.77
$IMU,26887.740,-0.915,0.061,-0.122,0.01806,1.01416,0.02832,28.77
$MAG,26887.741,-0.570,-0.525,-0.414,27.7
$IMU,26887.742,-0.732,-0.122,-0.183,0.01806,1.01074,0.02343,28.77
$IMU,26887.745,-0.671,-0.122,-0.122,0.01953,1.01074,0.02490,28.77
$IMU,26887.747,-0.549,0.000,-0.183,0.01855,1.00976,0.02783,28.77
$IMU,26887.750,-0.427,-0.061,-0.183,0.02343,1.01220,0.02441,28.77
$MAG,26887.751,-0.568,-0.517,-0.403,27.7
$IMU,26887.752,-0.183,-0.122,-0.122,0.01953,1.01025,0.02490,28.77
$IMU,26887.754,0.000,-0.061,-0.122,0.01953,1.00878,0.02343,28.77
$IMU,26887.757,0.183,-0.183,-0.183,0.01855,1.00683,0.02636,28.77
$IMU,26887.759,0.305,-0.183,-0.183,0.02050,1.01025,0.02490,28.77
$IMU,26887.761,0.427,-0.122,-0.244,0.02001,1.00781,0.02294,28.77
$MAG,26887.761,-0.565,-0.523,-0.408,27.7
$IMU,26887.764,0.427,0.061,-0.244,0.02197,1.00976,0.02587,28.79
$IMU,26887.766,0.488,0.061,-0.244,0.02001,1.00927,0.02441,28.79
$IMU,26887.768,0.671,-0.061,-0.244,0.02001,1.01171,0.02099,28.79
$MAG,26887.771,-0.567,-0.520,-0.409,27.7
$IMU,26887.771,0.793,-0.183,-0.183,0.01708,1.01464,0.02197,28.79
$IMU,26887.773,0.854,-0.122,-0.244,0.01904,1.01171,0.02246,28.79
$IMU,26887.775,0.793,-0.183,-0.244,0.01953,1.01513,0.02001,28.79
$IMU,26887.778,0.732,0.000,-0.244,0.02099,1.01220,0.02148,28.79
$IMU,26887.780,0.671,-0.061,-0.366,0.01708,1.01513,0.02197,28.79
$MAG,26887.781,-0.556,-0.520,-0.411,27.7
$IMU,26887.782,0.610,-0.183,-0.244,0.01757,1.01611,0.01855,28.77
$IMU,26887.785,0.488,-0.061,-0.183,0.01806,1.01562,0.01904,28.77
$IMU,26887.787,0.366,0.000,-0.244,0.01806,1.01806,0.01757,28.77
$IMU,26887.789,0.183,-0.061,-0.183,0.01953,1.01855,0.01611,28.77
$MAG,26887.791,-0.565,-0.513,-0.408,27.6
$IMU,26887.792,0.183,-0.122,-0.122,0.01806,1.01806,0.02050,28.77
$IMU,26887.794,0.061,-0.061,-0.122,0.02148,1.01660,0.01806,28.77
$IMU,26887.796,-0.122,-0.183,-0.061,0.02050,1.01562,0.01806,28.77
$IMU,26887.799,-0.244,-0.183,-0.122,0.02148,1.01708,0.01904,28.77
$IMU,26887.801,-0.366,-0.183,-0.183,0.02099,1.01416,0.01904,28.78
$MAG,26887.802,-0.570,-0.522,-0.412,27.7
$IMU,26887.803,-0.610,0.122,-0.183,0.01757,1.01318,0.01953,28.78
$IMU,26887.806,-0.732,0.122,-0.061,0.01953,1.01171,0.01757,28.78
$BARO,26887.807,86876.42,28.75
$IMU,26887.808,-0.793,-0.061,-0.061,0.01660,1.01318,0.01953,28.78
$IMU,26887.811,-0.854,-0.122,-0.122,0.02001,1.01171,0.02001,28.78
$MAG,26887.812,-0.559,-0.516,-0.408,27.6
$IMU,26887.813,-1.037,-0.183,-0.122,0.01660,1.01269,0.02197,28.78
$IMU,26887.815,-1.037,-0.183,-0.122,0.02099,1.00830,0.01855,28.78
$IMU,26887.818,-1.159,-0.183,-0.061,0.01757,1.01025,0.02148,28.78
$IMU,26887.820,-1.098,-0.122,0.000,0.01855,1.01123,0.02294,28.78
$MAG,26887.822,-0.568,-0.523,-0.409,27.7
$IMU,26887.822,-1.159,-0.122,0.000,0.01855,1.01123,0.01953,28.78
$IMU,26887.825,-1.098,-0.183,0.061,0.01806,1.00830,0.02099,28.78
$IMU,26887.827,-1.037,-0.061,-0.061,0.02246,1.01416,0.02441,28.78
$IMU,26887.829,-1.037,-0.061,0.000,0.01953,1.00781,0.02197,28.78
$MAG,26887.832,-0.556,-0.519,-0.405,27.6
$IMU,26887.832,-0.976,-0.183,0.061,0.01855,1.01074,0.02099,28.78
$IMU,26887.834,-1.037,-0.122,0.000,0.02050,1.01269,0.02587,28.78
$IMU,26887.836,-0.976,-0.122,0.000,0.01855,1.01074,0.02587,28.78
$IMU,26887.839,-0.732,-0.183,-0.061,0.02050,1.01171,0.02490,28.80
$IMU,26887.841,-0.793,-0.183,-0.122,0.02001,1.01416,0.02441,28.80
$MAG,26887.842,-0.567,-0.517,-0.412,27.6
$IMU,26887.843,-0.854,-0.122,-0.061,0.01855,1.01367,0.02490,28.80
$IMU,26887.846,-0.732,-0.061,-0.122,0.02001,1.01367,0.02490,28.80
$IMU,26887.848,-0.610,-0.183,-0.183,0.02148,1.01367,0.02246,28.80
$IMU,26887.850,-0.549,-0.122,-0.122,0.02050,1.01660,0.02148,28.80
$MAG,26887.852,-0.561,-0.511,-0.397,27.7
$IMU,26887.853,-0.488,-0.061,-0.122,0.01806,1.01074,0.02587,28.80
$HUM,26887.854,34.9,29.1
$IMU,26887.855,-0.427,-0.061,-0.122,0.02246,1.01611,0.02343,28.80
$IMU,26887.857,-0.244,-0.244,-0.122,0.02148,1.02001,0.02587,28.82
$IMU,26887.860,-0.122,-0.244,-0.122,0.01904,1.01757,0.02294,28.82
$IMU,26887.862,-0.061,-0.183,-0.183,0.02099,1.01562,0.02490,28.82
$MAG,26887.862,-0.565,-0.519,-0.417,27.8
$IMU,26887.864,-0.061,-0.122,-0.183,0.02197,1.01416,0.02441,28.82
$IMU,26887.867,0.122,-0.061,-0.183,0.01708,1.01660,0.02392,28.82
$IMU,26887.869,0.183,-0.122,-0.183,0.01708,1.01367,0.02392,28.82
$MAG,26887.872,-0.559,-0.519,-0.409,27.7
$IMU,26887.872,0.244,-0.183,-0.244,0.02050,1.01123,0.02343,28.82
$IMU,26887.874,0.366,-0.305,-0.305,0.02001,1.01367,0.02294,28.82
$IMU,26887.876,0.305,-0.183,-0.244,0.01904,1.01367,0.02392,28.76
$IMU,26887.879,0.183,0.000,-0.244,0.02001,1.01025,0.02539,28.76
$IMU,26887.881,0.183,0.000,-0.244,0.02050,1.00781,0.02539,28.76
$MAG,26887.882,-0.558,-0.525,-0.406,27.6
$IMU,26887.883,0.244,-0.122,-0.183,0.01953,1.00830,0.02392,28.76
$IMU,26887.886,0.305,-0.183,-0.061,0.01708,1.00976,0.01855,28.76
$IMU,26887.888,0.305,0.000,-0.061,0.01953,1.00976,0.02392,28.76
$IMU,26887.890,0.305,-0.061,-0.122,0.01708,1.01025,0.02294,28.76
$MAG,26887.892,-0.564,-0.517,-0.400,27.7
$IMU,26887.893,0.244,-0.061,-0.122,0.01953,1.01074,0.02099,28.76
$IMU,26887.895,0.183,-0.061,-0.183,0.01806,1.00683,0.02197,28.77
$IMU,26887.897,0.244,-0.122,-0.183,0.02050,1.00781,0.01953,28.77
$IMU,26887.900,0.183,-0.183,-0.183,0.01757,1.00976,0.02050,28.77
$MAG,26887.902,-0.565,-0.522,-0.412,27.6
$IMU,26887.902,0.000,-0.061,-0.122,0.02050,1.01123,0.01855,28.77
$IMU,26887.904,-0.061,0.061,-0.122,0.01855,1.00927,0.01757,28.77
$IMU,26887.907,-0.061,-0.244,-0.122,0.01855,1.01367,0.01953,28.77
$BARO,26887.908,86869.67,28.74
$IMU,26887.909,-0.122,-0.183,-0.061,0.01660,1.01464,0.02001,28.77
$IMU,26887.911,-0.244,-0.183,-0.122,0.01855,1.01513,0.01757,28.77
$MAG,26887.913,-0.564,-0.519,-0.406,27.7
$IMU,26887.914,-0.305,-0.122,-0.183,0.01904,1.01660,0.02001,28.80
$IMU,26887.916,-0.549,0.000,-0.122,0.01904,1.01318,0.01708,28.80
$IMU,26887.918,-0.671,0.000,-0.122,0.02050,1.01416,0.02050,28.80
$IMU,26887.921,-0.793,0.000,-0.061,0.02001,1.01464,0.01757,28.80
$MAG,26887.923,-0.565,-0.514,-0.403,27.6
$IMU,26887.923,-0.793,-0.061,-0.061,0.01806,1.01367,0.01757,28.80
$IMU,26887.925,-0.976,0.000,-0.061,0.01953,1.01806,0.01660,28.80
$IMU,26887.928,-1.098,-0.061,-0.122,0.01953,1.01708,0.02099,28.80
$IMU,26887.930,-1.159,-0.061,-0.061,0.02050,1.01562,0.02197,28.80
$IMU,26887.932,-1.342,0.000,-0.061,0.02001,1.01855,0.02490,28.76
$MAG,26887.933,-0.562,-0.525,-0.408,27.8
$IMU,26887.935,-1.342,-0.183,-0.122,0.02001,1.01562,0.02246,28.76
$IMU,26887.937,-1.342,-0.183,-0.061,0.01611,1.01660,0.02050,28.76
$IMU,26887.940,-1.403,0.000,-0.183,0.01806,1.01171,0.02001,28.76
$IMU,26887.942,-1.403,-0.183,-0.122,0.02099,1.00976,0.02587,28.76
$MAG,26887.943,-0.561,-0.520,-0.411,27.7
$IMU,26887.944,-1.464,0.061,-0.061,0.01757,1.01318,0.02392,28.76
$IMU,26887.947,-1.281,-0.122,-0.061,0.01513,1.01220,0.02490,28.76
$IMU,26887.949,-1.281,-0.183,-0.122,0.01513,1.01513,0.02246,28.76
$IMU,26887.951,-1.220,-0.122,-0.061,0.01660,1.01269,0.02343,28.77
$MAG,26887.953,-0.559,-0.523,-0.411,27.7
$IMU,26887.954,-1.220,-0.061,-0.061,0.01562,1.01123,0.02441,28.77
$IMU,26887.956,-1.037,0.000,-0.122,0.01660,1.01269,0.02490,28.77
$IMU,26887.958,-0.915,0.000,-0.122,0.01757,1.01220,0.02734,28.77
$IMU,26887.961,-0.732,-0.061,-0.061,0.01757,1.01171,0.02539,28.77
$MAG,26887.963,-0.565,-0.517,-0.397,27.7
$IMU,26887.963,-0.488,-0.244,-0.061,0.02148,1.00878,0.02832,28.77
$IMU,26887.965,-0.366,-0.183,-0.183,0.02099,1.01367,0.02490,28.77
$IMU,26887.968,-0.366,0.061,-0.061,0.02197,1.01367,0.02392,28.77
$IMU,26887.970,-0.183,-0.122,-0.122,0.01953,1.01220,0.02490,28.79
$IMU,26887.972,0.000,-0.183,-0.183,0.01806,1.01269,0.02392,28.79
$MAG,26887.973,-0.574,-0.513,-0.399,27.7
$IMU,26887.975,0.122,-0.122,-0.183,0.01904,1.01416,0.02490,28.79
$IMU,26887.977,0.305,0.000,-0.122,0.01757,1.01416,0.02392,28.79
$IMU,26887.979,0.366,0.000,-0.183,0.01806,1.01708,0.02539,28.79
$IMU,26887.982,0.549,0.000,-0.122,0.02050,1.01562,0.02441,28.79
$MAG,26887.983,-0.567,-0.519,-0.403,27.6
$IMU,26887.984,0.793,-0.122,-0.122,0.01855,1.01464,0.02392,28.79
$IMU,26887.986,0.854,-0.244,-0.122,0.02050,1.01220,0.02246,28.79
$IMU,26887.989,0.854,-0.122,-0.122,0.02050,1.01220,0.02099,28.76
$IMU,26887.991,0.854,-0.061,-0.122,0.01904,1.01562,0.02148,28.76
$MAG,26887.993,-0.562,-0.520,-0.409,27.7
$IMU,26887.993,0.976,-0.061,-0.244,0.02246,1.01513,0.01953,28.76
$IMU,26887.996,0.976,-0.122,-0.305,0.02148,1.01660,0.02490,28.76
$IMU,26887.998,1.037,-0.183,-0.305,0.01708,1.01416,0.02246,28.76
$IMU,26888.001,1.037,-0.183,-0.244,0.01708,1.01367,0.01855,28.76
$MAG,26888.003,-0.564,-0.525,-0.408,27.6
$IMU,26888.003,1.037,-0.061,-0.183,0.01757,1.00830,0.01757,28.76
$IMU,26888.005,0.976,-0.183,-0.305,0.02001,1.01416,0.01855,28.76
$IMU,26888.008,0.793,-0.061,-0.183,0.02001,1.01367,0.01855,28.78
$BARO,26888.010,86871.69,28.74
$IMU,26888.010,0.732,-0.122,-0.244,0.01904,1.01367,0.01660,28.78
$IMU,26888.012,0.610,-0.183,-0.244,0.01806,1.01025,0.01904,28.78
$MAG,26888.013,-0.567,-0.526,-0.408,27.7
$IMU,26888.015,0.488,-0.122,-0.183,0.01806,1.00976,0.01611,28.78
$IMU,26888.017,0.244,-0.061,-0.183,0.02001,1.01318,0.01660,28.78
$IMU,26888.019,0.122,-0.122,-0.122,0.02246,1.00927,0.01611,28.78
$IMU,26888.022,0.000,-0.122,-0.061,0.02343,1.00878,0.01904,28.78
$MAG,26888.024,-0.562,-0.514,-0.405,27.6
$IMU,26888.024,-0.183,-0.122,-0.061,0.02148,1.01171,0.01806,28.78
$IMU,26888.026,-0.427,-0.061,-0.122,0.02001,1.01123,0.01708,28.73
$IMU,26888.029,-0.549,-0.061,-0.122,0.01806,1.01367,0.01611,28.73
$IMU,26888.031,-0.671,-0.061,-0.122,0.01855,1.01367,0.01611,28.73
$IMU,26888.033,-0.793,-0.122,-0.183,0.02099,1.01367,0.01660,28.73
$MAG,26888.034,-0.565,-0.513,-0.406,27.7
$IMU,26888.036,-0.976,-0.244,-0.183,0.01855,1.01171,0.01660,28.73
$IMU,26888.038,-1.220,-0.122,-0.183,0.01904,1.01416,0.01611,28.73
$IMU,26888.040,-1.342,-0.122,-0.061,0.02001,1.01171,0.01904,28.73
$IMU,26888.043,-1.464,-0.122,-0.061,0.01953,1.01220,0.02197,28.73
$MAG,26888.044,-0.558,-0.525,-0.406,27.7
$IMU,26888.045,-1.525,-0.061,0.000,0.02343,1.01269,0.01757,28.74
$IMU,26888.047,-1.586,-0.122,0.000,0.01855,1.01269,0.02050,28.74
$IMU,26888.050,-1.647,-0.122,0.000,0.02148,1.01318,0.02246,28.74
$IMU,26888.052,-1.708,0.000,0.061,0.02050,1.01220,0.02246,28.74
$MAG,26888.054,-0.565,-0.513,-0.397,27.7
$IMU,26888.054,-1.831,-0.122,-0.061,0.01855,1.01220,0.02197,28.74
$IMU,26888.057,-1.770,0.000,0.000,0.02148,1.01318,0.02343,28.74
$IMU,26888.059,-1.831,0.061,-0.061,0.01708,1.01464,0.02343,28.74
$IMU,26888.062,-1.708,-0.122,-0.061,0.01757,1.01464,0.02490,28.74
$MAG,26888.064,-0.561,-0.526,-0.408,28.1
$IMU,26888.064,-1.586,-0.122,-0.061,0.01660,1.01171,0.02392,28.76
$IMU,26888.066,-1.586,-0.061,-0.061,0.01953,1.01464,0.02832,28.76
$IMU,26888.069,-1.403,-0.122,-0.061,0.01904,1.01513,0.02587,28.76
$IMU,26888.071,-1.281,-0.061,-0.061,0.01757,1.01367,0.02880,28.76
$IMU,26888.073,-1.159,0.000,0.000,0.01904,1.01220,0.02539,28.76
$MAG,26888.074,-0.555,-0.519,-0.409,27.7
$IMU,26888.076,-1.037,-0.183,-0.061,0.01953,1.00830,0.02880,28.76
$IMU,26888.078,-0.854,-0.183,-0.061,0.01904,1.01025,0.02880,28.76
$IMU,26888.080,-0.610,-0.061,-0.122,0.02099,1.01074,0.02880,28.76
$IMU,26888.083,-0.366,-0.244,-0.183,0.01904,1.01025,0.02734,28.81
$MAG,26888.084,-0.570,-0.517,-0.403,27.7
$IMU,26888.085,-0.305,-0.061,-0.183,0.01708,1.00976,0.02587,28.81
$IMU,26888.087,-0.061,-0.122,-0.122,0.01904,1.01123,0.02685,28.81
$IMU,26888.090,0.244,-0.183,-0.183,0.02294,1.00732,0.02685,28.81
$IMU,26888.092,0.366,-0.183,-0.183,0.01660,1.00927,0.02783,28.81
$MAG,26888.094,-0.570,-0.513,-0.411,27.6
$IMU,26888.094,0.488,-0.122,-0.244,0.02148,1.01367,0.02832,28.81
$IMU,26888.097,0.488,0.000,-0.183,0.01757,1.01269,0.02490,28.81
$IMU,26888.099,0.671,-0.122,-0.183,0.02050,1.01220,0.02343,28.81
$IMU,26888.101,0.793,-0.061,-0.183,0.02050,1.00976,0.02685,28.78
$MAG,26888.104,-0.568,-0.525,-0.405,27.7
$IMU,26888.104,0.915,-0.244,-0.183,0.02148,1.01220,0.02441,28.78
$IMU,26888.106,0.854,0.000,-0.244,0.01953,1.01220,0.02294,28.78
$IMU,26888.108,0.976,0.000,-0.183,0.01953,1.01123,0.02392,28.78
$BARO,26888.111,86867.60,28.74
$IMU,26888.111,0.915,-0.122,-0.183,0.01904,1.01074,0.02246,28.78
$IMU,26888.113,0.976,-0.183,-0.183,0.01757,1.01025,0.02246,28.78
$MAG,26888.114,-0.562,-0.519,-0.408,27.8
$IMU,26888.115,0.854,-0.183,-0.244,0.01904,1.01269,0.02294,28.78
$IMU,26888.118,0.671,0.000,-0.244,0.02099,1.01367,0.02343,28.78
$IMU,26888.120,0.610,-0.061,-0.244,0.02001,1.01220,0.02099,28.75
$IMU,26888.123,0.549,-0.122,-0.183,0.01806,1.01025,0.01806,28.75
$MAG,26888.124,-0.562,-0.519,-0.399,27.6
$IMU,26888.125,0.488,-0.183,-0.122,0.02099,1.01025,0.01953,28.75
$IMU,26888.127,0.305,-0.122,-0.183,0.02148,1.00976,0.02148,28.75
$IMU,26888.130,0.122,-0.061,-0.183,0.01953,1.01269,0.02099,28.75
$IMU,26888.132,0.000,-0.061,-0.183,0.02197,1.01367,0.02050,28.75
$IMU,26888.134,-0.305,0.061,-0.183,0.02050,1.01611,0.01806,28.75
$MAG,26888.135,-0.559,-0.514,-0.408,28.1
$IMU,26888.137,-0.427,-0.061,-0.122,0.01855,1.01123,0.01806,28.75
$IMU,26888.139,-0.488,-0.183,-0.122,0.01757,1.00878,0.01855,28.80
$IMU,26888.141,-0.671,-0.061,-0.061,0.01904,1.01611,0.02099,28.80
$IMU,26888.144,-0.793,-0.061,-0.061,0.01708,1.01269,0.02050,28.80
$MAG,26888.145,-0.559,-0.525,-0.411,27.7
$IMU,26888.146,-1.037,0.000,-0.122,0.01953,1.01025,0.02001,28.80
$IMU,26888.148,-1.098,-0.122,0.000,0.02099,1.01269,0.02001,28.80
$IMU,26888.151,-1.159,-0.122,0.000,0.01757,1.01269,0.02001,28.80
$IMU,26888.153,-1.159,-0.305,-0.061,0.02148,1.01123,0.01953,28.80
$MAG,26888.155,-0.559,-0.522,-0.406,27.7
$IMU,26888.155,-1.220,-0.122,-0.061,0.02050,1.01074,0.02050,28.80
$IMU,26888.158,-1.342,0.000,-0.061,0.01904,1.01269,0.02099,28.83
$IMU,26888.160,-1.281,-0.122,0.000,0.02001,1.01025,0.02343,28.83
$IMU,26888.162,-1.220,-0.122,-0.061,0.01708,1.01074,0.02099,28.83
$MAG,26888.165,-0.558,-0.522,-0.411,27.8
$IMU,26888.165,-1.220,-0.122,-0.061,0.02001,1.00830,0.02392,28.83
$IMU,26888.167,-1.159,-0.061,-0.122,0.01562,1.00976,0.02343,28.83
$IMU,26888.169,-1.098,-0.122,-0.061,0.01660,1.00976,0.02392,28.83
$IMU,26888.172,-1.098,0.061,-0.061,0.01562,1.01269,0.02148,28.83
$IMU,26888.174,-0.915,0.061,-0.061,0.02001,1.01171,0.02490,28.83
$MAG,26888.175,-0.564,-0.519,-0.412,28.0
$IMU,26888.176,-0.732,-0.122,-0.061,0.01660,1.01123,0.02246,28.76
$IMU,26888.179,-0.671,-0.244,-0.061,0.01660,1.01269,0.02783,28.76
$IMU,26888.181,-0.610,-0.183,-0.183,0.02148,1.01318,0.02685,28.76
$IMU,26888.184,-0.549,-0.122,-0.183,0.02001,1.01464,0.02587,28.76
$MAG,26888.185,-0.562,-0.508,-0.408,28.1
$IMU,26888.186,-0.610,0.000,-0.122,0.02197,1.01562,0.02246,28.76
$IMU,26888.188,-0.427,-0.122,-0.122,0.02050,1.01611,0.02685,28.76
$IMU,26888.191,-0.305,0.000,-0.122,0.02099,1.01562,0.02441,28.76
$IMU,26888.193,-0.244,-0.122,-0.183,0.01855,1.01416,0.02490,28.76
$MAG,26888.195,-0.564,-0.523,-0.414,27.8
$IMU,26888.195,-0.061,-0.183,-0.244,0.02001,1.01464,0.02539,28.76
$IMU,26888.198,-0.122,0.061,-0.244,0.02050,1.01318,0.02441,28.76
$IMU,26888.200,-0.061,0.000,-0.244,0.02050,1.01562,0.02441,28.76
$IMU,26888.202,0.061,-0.122,-0.183,0.02197,1.01367,0.02441,28.76
$MAG,26888.205,-0.567,-0.519,-0.415,27.8
$IMU,26888.205,0.122,-0.244,-0.183,0.02099,1.01953,0.02197,28.76
$IMU,26888.207,0.183,-0.183,-0.244,0.01904,1.01562,0.02099,28.76
$IMU,26888.209,0.183,-0.183,-0.183,0.01904,1.01367,0.02343,28.76
$IMU,26888.212,0.244,-0.061,-0.183,0.01904,1.01220,0.02392,28.76
$BARO,26888.213,86871.42,28.74
$IMU,26888.214,0.183,-0.061,-0.183,0.01855,1.01220,0.02197,28.78
$MAG,26888.215,-0.564,-0.519,-0.411,28.0
$IMU,26888.216,0.244,-0.244,-0.122,0.01855,1.01367,0.02343,28.78
$IMU,26888.219,0.305,-0.183,-0.183,0.01611,1.01220,0.02148,28.78
$IMU,26888.221,0.244,-0.183,-0.183,0.01855,1.01074,0.02294,28.78
$IMU,26888.223,0.061,0.000,-0.183,0.01757,1.01220,0.02294,28.78
$MAG,26888.225,-0.562,-0.517,-0.414,27.8
$IMU,26888.226,0.183,-0.061,-0.122,0.01953,1.01757,0.02001,28.78
$IMU,26888.228,0.122,-0.061,-0.122,0.01904,1.00976,0.02392,28.78
$IMU,26888.230,0.122,-0.183,-0.122,0.02001,1.01074,0.02490,28.78
$IMU,26888.233,0.061,-0.244,-0.122,0.02197,1.01171,0.02148,28.76
$MAG,26888.235,-0.571,-0.519,-0.406,27.6
$IMU,26888.235,0.061,-0.305,-0.061,0.01904,1.01269,0.02148,28.76
$IMU,26888.237,-0.122,-0.122,-0.061,0.01757,1.01269,0.02294,28.76
$IMU,26888.240,-0.244,0.061,-0.061,0.02001,1.01220,0.02343,28.76
$IMU,26888.242,-0.183,-0.183,-0.122,0.01953,1.01171,0.02246,28.76
$IMU,26888.245,-0.244,-0.122,-0.122,0.02148,1.01269,0.02050,28.76
$MAG,26888.246,-0.567,-0.514,-0.414,27.7
$IMU,26888.247,-0.366,0.061,-0.122,0.02001,1.01220,0.02050,28.76
$IMU,26888.249,-0.427,-0.122,-0.122,0.01708,1.01220,0.01953,28.76
$IMU,26888.252,-0.427,0.000,-0.122,0.02001,1.01367,0.02050,28.79
$IMU,26888.254,-0.427,-0.122,-0.122,0.01855,1.01318,0.02539,28.79
$MAG,26888.256,-0.570,-0.525,-0.409,27.7
$IMU,26888.256,-0.610,0.000,-0.061,0.01660,1.01513,0.02392,28.79
$IMU,26888.259,-0.610,-0.183,-0.061,0.02099,1.01171,0.02050,28.79
$IMU,26888.261,-0.488,-0.244,-0.122,0.02050,1.01611,0.02050,28.79
$IMU,26888.263,-0.793,0.244,-0.061,0.02197,1.01513,0.02392,28.79
$MAG,26888.266,-0.562,-0.514,-0.406,28.0
$IMU,26888.266,-0.732,0.061,-0.061,0.01953,1.01318,0.02099,28.79
$IMU,26888.268,-0.610,-0.061,-0.183,0.01953,1.01171,0.02246,28.79
$IMU,26888.270,-0.610,-0.122,-0.244,0.01611,1.01171,0.02197,28.79
$IMU,26888.273,-0.671,0.000,-0.305,0.01806,1.01513,0.02099,28.79
$IMU,26888.275,-0.671,-0.061,-0.244,0.02050,1.01269,0.02148,28.79
$MAG,26888.276,-0.561,-0.523,-0.402,27.6
$IMU,26888.277,-0.671,-0.061,-0.183,0.01757,1.01367,0.02490,28.79
$IMU,26888.280,-0.488,-0.183,-0.122,0.02148,1.01220,0.02343,28.79
$IMU,26888.282,-0.427,-0.183,-0.122,0.02099,1.01318,0.02539,28.79
$IMU,26888.284,-0.427,-0.183,-0.122,0.01757,1.01220,0.02392,28.79
$MAG,26888.286,-0.562,-0.513,-0.397,27.7
$IMU,26888.287,-0.488,0.000,-0.122,0.01611,1.01220,0.02685,28.79
$IMU,26888.289,-0.549,0.061,-0.244,0.01611,1.01220,0.02636,28.76
$IMU,26888.291,-0.427,-0.122,-0.183,0.02001,1.01171,0.02294,28.76
$IMU,26888.294,-0.488,0.061,-0.183,0.01708,1.01171,0.02392,28.76
$MAG,26888.296,-0.571,-0.514,-0.412,27.7
$IMU,26888.296,-0.427,0.061,-0.244,0.01660,1.01367,0.02343,28.76
$IMU,26888.298,-0.244,-0.061,-0.244,0.01757,1.01367,0.02343,28.76
$IMU,26888.301,-0.183,0.000,-0.183,0.01757,1.01123,0.02197,28.76
$IMU,26888.303,-0.183,0.000,-0.061,0.01806,1.01269,0.02343,28.76
$MAG,26888.306,-0.561,-0.510,-0.402,27.7
$IMU,26888.306,-0.061,-0.183,-0.122,0.01806,1.01416,0.02490,28.76
$IMU,26888.308,-0.061,-0.122,-0.122,0.01757,1.01074,0.02441,28.77
$IMU,26888.310,0.000,-0.122,-0.061,0.02099,1.01367,0.02148,28.77
$IMU,26888.313,0.000,-0.061,-0.183,0.01953,1.01708,0.02246,28.77
$BARO,26888.314,86863.57,28.74
$IMU,26888.315,-0.061,-0.183,-0.122,0.01806,1.01367,0.02246,28.77
$MAG,26888.316,-0.565,-0.513,-0.405,27.6
$IMU,26888.317,0.000,-0.122,-0.122,0.01660,1.01318,0.02099,28.77
$IMU,26888.320,0.061,-0.122,-0.183,0.01757,1.01367,0.02392,28.77
$IMU,26888.322,0.061,-0.183,-0.122,0.01660,1.01220,0.02343,28.77
$IMU,26888.324,-0.061,0.000,-0.183,0.02343,1.00976,0.02392,28.77
$MAG,26888.326,-0.564,-0.520,-0.412,27.7
$IMU,26888.327,0.000,0.000,-0.183,0.02099,1.01123,0.02246,28.80
$IMU,26888.329,0.000,0.000,-0.183,0.02246,1.01318,0.02148,28.80
$IMU,26888.331,0.061,-0.061,-0.122,0.01708,1.01171,0.02001,28.80
$IMU,26888.334,0.122,-0.183,-0.183,0.01855,1.01562,0.02294,28.80
$MAG,26888.336,-0.565,-0.511,-0.400,27.7
$IMU,26888.336,0.061,-0.122,-0.122,0.02001,1.01123,0.02197,28.80
$IMU,26888.338,-0.061,0.061,0.061,0.02099,1.01220,0.02148,28.80
$IMU,26888.341,-0.122,-0.061,-0.061,0.02001,1.01074,0.02294,28.80
$IMU,26888.343,-0.122,-0.122,-0.122,0.01855,1.01171,0.02294,28.80
$IMU,26888.345,-0.183,-0.122,-0.183,0.02099,1.01025,0.02392,28.76
$MAG,26888.346,-0.558,-0.517,-0.405,27.7
$IMU,26888.348,-0.244,-0.061,-0.122,0.01953,1.01416,0.02539,28.76
$IMU,26888.350,-0.305,-0.122,-0.244,0.02050,1.01367,0.02294,28.76
$IMU,26888.352,-0.244,-0.244,-0.244,0.01855,1.01025,0.02246,28.76
$IMU,26888.355,-0.366,-0.122,-0.183,0.02050,1.01318,0.02099,28.76
$MAG,26888.357,-0.567,-0.516,-0.412,27.8
$IMU,26888.357,-0.427,-0.122,-0.061,0.02001,1.01025,0.01953,28.76
$IMU,26888.359,-0.366,-0.183,0.000,0.02099,1.01464,0.02246,28.76
$IMU,26888.362,-0.549,-0.061,0.061,0.01953,1.01464,0.02246,28.76
$IMU,26888.364,-0.549,-0.122,0.000,0.02001,1.01367,0.01953,28.80
$IMU,26888.366,-0.610,0.000,-0.061,0.02148,1.01171,0.02148,28.80
$MAG,26888.367,-0.573,-0.522,-0.414,27.7
$IMU,26888.369,-0.671,0.061,-0.122,0.02148,1.01464,0.02099,28.80
$IMU,26888.371,-0.732,0.122,-0.183,0.02099,1.01074,0.02246,28.80
$IMU,26888.374,-0.793,0.000,-0.183,0.02050,1.01367,0.02441,28.80
$IMU,26888.376,-0.793,-0.061,-0.122,0.02050,1.01220,0.02490,28.80
$MAG,26888.377,-0.559,-0.516,-0.405,27.7
$IMU,26888.378,-0.793,0.000,-0.122,0.01953,1.00976,0.02392,28.80
$IMU,26888.381,-0.671,-0.183,-0.061,0.01855,1.01318,0.02099,28.80
$IMU,26888.383,-0.671,-0.305,-0.122,0.01855,1.01513,0.02001,28.81
$IMU,26888.385,-0.732,-0.061,-0.061,0.01757,1.01171,0.02050,28.81
$MAG,26888.387,-0.567,-0.519,-0.403,27.6
$IMU,26888.388,-0.793,0.000,-0.122,0.01757,1.01367,0.02197,28.81
$IMU,26888.390,-0.854,0.000,-0.061,0.01708,1.01367,0.02294,28.81
$IMU,26888.392,-0.793,-0.061,-0.061,0.01562,1.01123,0.02392,28.81
$IMU,26888.395,-0.793,-0.122,-0.061,0.01806,1.00976,0.02539,28.81
$MAG,26888.397,-0.556,-0.519,-0.411,27.8
$IMU,26888.397,-0.732,-0.122,-0.061,0.02246,1.01367,0.02441,28.81
$IMU,26888.399,-0.732,-0.061,0.000,0.01953,1.01123,0.02490,28.81
$IMU,26888.402,-0.793,-0.061,0.000,0.01757,1.01318,0.02783,28.76
$IMU,26888.404,-0.732,-0.061,-0.061,0.01855,1.01220,0.02685,28.76
$IMU,26888.406,-0.610,-0.183,-0.122,0.01855,1.01074,0.02294,28.76
$MAG,26888.407,-0.570,-0.513,-0.412,27.7
$IMU,26888.409,-0.549,-0.244,-0.183,0.01806,1.01123,0.02636,28.76
$IMU,26888.411,-0.427,-0.244,-0.244,0.02099,1.01171,0.02490,28.76
$IMU,26888.413,-0.305,-0.183,-0.122,0.01855,1.01074,0.02587,28.76
$BARO,26888.415,86863.82,28.74
$IMU,26888.416,-0.427,0.061,-0.122,0.02294,1.01318,0.02539,28.76
$MAG,26888.417,-0.565,-0.522,-0.400,28.1
$IMU,26888.418,-0.305,-0.183,-0.061,0.02490,1.00976,0.02294,28.76
$IMU,26888.420,-0.244,-0.183,0.061,0.02343,1.01611,0.02246,28.84
$IMU,26888.423,-0.244,0.000,0.061,0.02148,1.01269,0.02539,28.84
$IMU,26888.425,-0.244,-0.122,0.000,0.01953,1.01416,0.02490,28.84
$MAG,26888.427,-0.562,-0.517,-0.406,27.7
$IMU,26888.427,-0.183,0.000,0.000,0.02246,1.01074,0.02636,28.84
$IMU,26888.430,-0.122,0.000,-0.122,0.02099,1.01220,0.02392,28.84
$IMU,26888.432,0.000,-0.061,-0.183,0.02001,1.01074,0.02392,28.84
$IMU,26888.435,0.061,-0.305,-0.183,0.02343,1.01318,0.02294,28.84
$MAG,26888.437,-0.556,-0.513,-0.405,27.8
$IMU,26888.437,0.122,-0.122,-0.244,0.02050,1.00976,0.02392,28.84
$IMU,26888.439,0.061,-0.244,-0.244,0.01904,1.01269,0.02441,28.78
$IMU,26888.442,0.000,-0.122,-0.183,0.01953,1.01123,0.02197,28.78
$IMU,26888.444,0.000,-0.061,0.000,0.02001,1.00927,0.02441,28.78
$IMU,26888.446,0.061,-0.061,-0.122,0.02001,1.01269,0.02099,28.78
$MAG,26888.447,-0.570,-0.514,-0.397,27.7
$IMU,26888.449,0.061,-0.122,-0.122,0.01953,1.01416,0.02050,28.78
$IMU,26888.451,0.000,-0.122,-0.183,0.02050,1.01367,0.02148,28.78
$IMU,26888.453,-0.122,-0.183,-0.183,0.01855,1.01318,0.02294,28.78
$IMU,26888.456,-0.061,-0.305,-0.244,0.02099,1.00927,0.02294,28.78
$MAG,26888.457,-0.574,-0.520,-0.417,27.8
$IMU,26888.458,-0.244,0.000,-0.244,0.02148,1.01513,0.02197,28.79
$IMU,26888.460,-0.305,-0.122,-0.183,0.01904,1.01220,0.02343,28.79
$IMU,26888.463,-0.366,-0.061,-0.122,0.01904,1.01562,0.02099,28.79
$IMU,26888.465,-0.366,-0.122,0.000,0.02001,1.01123,0.02099,28.79
$IMU,26888.467,-0.427,-0.305,-0.061,0.02148,1.01708,0.02246,28.79
$MAG,26888.468,-0.562,-0.523,-0.403,27.7
$IMU,26888.470,-0.549,-0.061,-0.122,0.01904,1.01806,0.02490,28.79
$IMU,26888.472,-0.549,-0.061,-0.183,0.01708,1.01708,0.02343,28.79
$IMU,26888.474,-0.671,-0.122,-0.244,0.01757,1.01904,0.02490,28.79
$IMU,26888.477,-0.793,0.000,-0.244,0.02050,1.01513,0.02441,28.76
$MAG,26888.478,-0.558,-0.517,-0.405,27.7
$IMU,26888.479,-0.854,-0.122,-0.244,0.01904,1.01464,0.02539,28.76
$IMU,26888.481,-0.854,-0.244,-0.183,0.02001,1.01562,0.02441,28.76
$IMU,26888.484,-0.854,-0.183,-0.122,0.02001,1.01269,0.02246,28.76
$IMU,26888.486,-0.793,-0.183,-0.061,0.01904,1.00976,0.02148,28.76
$MAG,26888.488,-0.568,-0.519,-0.406,27.7
$IMU,26888.488,-0.976,-0.183,0.000,0.01953,1.01269,0.02246,28.76
$IMU,26888.491,-0.976,-0.061,0.061,0.01806,1.01464,0.02490,28.76
$IMU,26888.493,-0.854,-0.061,0.000,0.02099,1.01416,0.02246,28.76
$IMU,26888.496,-0.854,-0.122,-0.061,0.01953,1.01269,0.02343,28.76
$MAG,26888.498,-0.561,-0.519,-0.406,27.6
$IMU,26888.498,-0.854,-0.061,-0.061,0.02001,1.01416,0.02441,28.76
$IMU,26888.500,-0.671,-0.061,-0.244,0.01953,1.01171,0.02539,28.76
$IMU,26888.503,-0.610,-0.122,-0.183,0.01904,1.01123,0.02587,28.76
$IMU,26888.505,-0.549,-0.061,-0.122,0.01855,1.01025,0.02636,28.76
$IMU,26888.507,-0.366,-0.061,-0.183,0.01806,1.01464,0.02734,28.76
$MAG,26888.508,-0.567,-0.514,-0.403,27.6
$IMU,26888.510,-0.305,-0.183,-0.183,0.01660,1.01074,0.02539,28.76
$IMU,26888.512,-0.183,-0.183,-0.122,0.01806,1.01269,0.02587,28.76
$IMU,26888.514,-0.122,-0.061,-0.061,0.01660,1.01123,0.02246,28.77
$BARO,26888.517,86861.01,28.74
$IMU,26888.517,0.000,0.061,-0.122,0.02099,1.01708,0.02539,28.77
$MAG,26888.518,-0.565,-0.523,-0.417,27.7
$IMU,26888.519,0.061,-0.061,-0.122,0.02001,1.01074,0.02294,28.77
$IMU,26888.521,0.183,-0.183,-0.183,0.02050,1.01318,0.02490,28.77
$IMU,26888.524,0.305,-0.183,-0.244,0.02050,1.01367,0.02343,28.77
$IMU,26888.526,0.244,-0.061,-0.305,0.02197,1.01318,0.02734,28.77
$MAG,26888.528,-0.561,-0.526,-0.412,27.7
$IMU,26888.528,0.366,-0.061,-0.244,0.01904,1.01318,0.02441,28.77
$IMU,26888.531,0.305,0.000,-0.244,0.01806,1.01269,0.02539,28.77
$IMU,26888.533,0.366,-0.061,-0.305,0.01757,1.01513,0.02539,28.80
$IMU,26888.535,0.366,-0.122,-0.244,0.01757,1.01171,0.02490,28.80
$MAG,26888.538,-0.568,-0.522,-0.403,27.7
$IMU,26888.538,0.427,-0.122,-0.305,0.01708,1.01562,0.02343,28.80
$IMU,26888.540,0.427,-0.061,-0.366,0.01855,1.01708,0.02197,28.80
$IMU,26888.542,0.366,0.061,-0.305,0.01757,1.01562,0.02343,28.80
$IMU,26888.545,0.305,0.000,-0.244,0.01855,1.01611,0.02343,28.80
$IMU,26888.547,0.366,-0.061,-0.183,0.02001,1.01416,0.02197,28.80
$MAG,26888.548,-0.564,-0.517,-0.397,27.7
$IMU,26888.549,0.305,-0.122,-0.183,0.01855,1.01171,0.02197,28.80
$IMU,26888.552,0.305,-0.122,-0.061,0.01904,1.01367,0.02197,28.79
$IMU,26888.554,0.183,-0.061,-0.061,0.02099,1.00976,0.02294,28.79
$IMU,26888.557,0.183,-0.122,-0.183,0.02099,1.01611,0.02099,28.79
$MAG,26888.558,-0.561,-0.519,-0.411,27.7
$IMU,26888.559,0.183,0.000,-0.244,0.01904,1.01367,0.02246,28.79
$IMU,26888.561,0.122,-0.183,-0.183,0.01708,1.01464,0.02001,28.79
$IMU,26888.564,0.061,-0.122,-0.305,0.01904,1.01562,0.02197,28.79
$IMU,26888.566,0.000,0.000,-0.305,0.02001,1.01416,0.02099,28.79
$MAG,26888.568,-0.556,-0.516,-0.402,27.6
$IMU,26888.568,0.061,-0.061,-0.183,0.01953,1.01611,0.02490,28.79
$IMU,26888.571,0.122,0.000,-0.244,0.02197,1.01123,0.02246,28.77
$IMU,26888.573,0.061,-0.061,-0.183,0.01855,1.01562,0.02197,28.77
$IMU,26888.575,0.122,-0.183,-0.061,0.01806,1.01416,0.02197,28.77
$IMU,26888.578,0.061,0.000,-0.061,0.02246,1.01269,0.02197,28.77
$MAG,26888.579,-0.571,-0.513,-0.402,27.7
$IMU,26888.580,0.000,0.000,-0.183,0.02050,1.00976,0.02246,28.77
$IMU,26888.582,-0.061,0.061,-0.122,0.02197,1.01464,0.02294,28.77
$IMU,26888.585,-0.061,-0.061,-0.122,0.02001,1.01220,0.02001,28.77
$IMU,26888.587,0.000,-0.061,-0.305,0.02099,1.01513,0.01953,28.77
$MAG,26888.589,-0.553,-0.517,-0.412,27.7
$IMU,26888.589,0.000,-0.061,-0.305,0.02099,1.01318,0.02099,28.82
$IMU,26888.592,-0.061,-0.061,-0.183,0.02294,1.01220,0.01904,28.82
$IMU,26888.594,0.000,-0.061,-0.244,0.02099,1.01660,0.02539,28.82
$IMU,26888.596,0.000,-0.122,-0.244,0.01953,1.01416,0.02050,28.82
$MAG,26888.599,-0.565,-0.514,-0.402,27.7
$IMU,26888.599,0.000,-0.122,-0.244,0.01806,1.01660,0.02246,28.82
$IMU,26888.601,-0.061,-0.061,-0.244,0.01806,1.01562,0.02197,28.82
$IMU,26888.603,-0.183,-0.061,-0.305,0.01953,1.01757,0.01953,28.82
$IMU,26888.606,-0.122,0.000,-0.366,0.01757,1.01806,0.02050,28.82
$IMU,26888.608,-0.183,0.000,-0.366,0.01611,1.01269,0.02246,28.76
$MAG,26888.609,-0.570,-0.517,-0.409,27.7
$IMU,26888.610,-0.061,-0.122,-0.305,0.01953,1.01123,0.02246,28.76
$IMU,26888.613,-0.061,-0.122,-0.183,0.02050,1.01171,0.02490,28.76
$IMU,26888.615,-0.122,-0.061,-0.183,0.01855,1.01220,0.02587,28.76
$BARO,26888.618,86870.47,28.74
$IMU,26888.618,-0.183,-0.061,-0.183,0.02148,1.01660,0.02490,28.76
$MAG,26888.619,-0.562,-0.511,-0.405,27.8
$IMU,26888.620,-0.183,-0.061,-0.244,0.01904,1.01513,0.02490,28.76
$IMU,26888.622,-0.122,-0.183,-0.244,0.02246,1.01025,0.02246,28.76
$IMU,26888.625,-0.244,-0.061,-0.305,0.01904,1.00976,0.02441,28.76
$IMU,26888.627,-0.183,-0.122,-0.366,0.01904,1.01171,0.02441,28.79
$MAG,26888.629,-0.567,-0.528,-0.406,27.7
$IMU,26888.629,-0.183,-0.061,-0.305,0.01953,1.01123,0.02246,28.79
$IMU,26888.632,-0.183,0.000,-0.244,0.01660,1.01464,0.02441,28.79
$IMU,26888.634,-0.244,0.000,-0.183,0.01855,1.01513,0.02490,28.79
$IMU,26888.636,-0.122,-0.061,-0.183,0.01953,1.01464,0.02539,28.79
$MAG,26888.639,-0.564,-0.519,-0.405,27.7
$IMU,26888.639,-0.183,-0.122,-0.183,0.01611,1.01367,0.02539,28.79
$IMU,26888.641,-0.183,0.000,-0.183,0.01806,1.01269,0.02685,28.79
$IMU,26888.643,-0.122,-0.183,-0.183,0.01904,1.01318,0.02587,28.79
$IMU,26888.646,-0.122,-0.061,-0.183,0.02099,1.01464,0.02343,28.82
$IMU,26888.648,-0.061,0.000,-0.183,0.02099,1.01513,0.02343,28.82
$MAG,26888.649,-0.556,-0.519,-0.411,27.7
$VBAT,26888.649,4.124
$IMU,26888.650,-0.122,0.061,-0.183,0.02197,1.01513,0.02734,28.82
$IMU,26888.653,0.000,-0.061,-0.183,0.01904,1.01708,0.02734,28.82
$IMU,26888.655,0.000,0.061,-0.244,0.02099,1.01806,0.02783,28.82
$IMU,26888.657,0.061,0.061,-0.305,0.02294,1.01269,0.02685,28.82
$MAG,26888.659,-0.567,-0.513,-0.412,27.7
$IMU,26888.660,0.000,-0.122,-0.305,0.02099,1.01611,0.02783,28.82
$IMU,26888.662,0.122,0.000,-0.183,0.02246,1.01220,0.02636,28.82
$IMU,26888.664,0.183,-0.122,-0.244,0.02099,1.01708,0.02441,28.76
$IMU,26888.667,0.244,-0.061,-0.183,0.02197,1.01611,0.02636,28.76
$MAG,26888.669,-0.561,-0.514,-0.405,27.8
$IMU,26888.669,0.305,0.122,-0.183,0.01904,1.01513,0.02685,28.76
$IMU,26888.671,0.305,0.061,-0.305,0.02197,1.01611,0.02636,28.76
$IMU,26888.674,0.488,-0.122,-0.366,0.02148,1.01513,0.02685,28.76
$IMU,26888.676,0.549,-0.061,-0.305,0.02246,1.01562,0.02197,28.76
$MAG,26888.679,-0.565,-0.517,-0.414,27.6
$IMU,26888.679,0.549,-0.061,-0.366,0.02148,1.01416,0.02246,28.76
$IMU,26888.681,0.610,-0.061,-0.488,0.01953,1.00976,0.02685,28.76
$IMU,26888.683,0.732,0.122,-0.427,0.01904,1.01220,0.02734,28.78
$IMU,26888.686,0.915,0.000,-0.427,0.02148,1.01269,0.02490,28.78
$IMU,26888.688,1.037,-0.183,-0.427,0.01855,1.01123,0.02490,28.78
$MAG,26888.690,-0.558,-0.523,-0.409,27.7
$IMU,26888.690,1.037,0.000,-0.305,0.02197,1.01220,0.02539,28.78
$IMU,26888.693,1.159,-0.122,-0.244,0.01904,1.01220,0.02197,28.78
$IMU,26888.695,1.159,-0.061,-0.366,0.02001,1.01318,0.02392,28.78
$IMU,26888.697,1.220,0.122,-0.366,0.02246,1.01269,0.02539,28.78
$MAG,26888.700,-0.564,-0.511,-0.408,28.0
$IMU,26888.700,1.281,0.000,-0.366,0.02148,1.01025,0.02246,28.78
$IMU,26888.702,1.342,-0.122,-0.427,0.01806,1.01074,0.02294,28.83
$IMU,26888.704,1.525,-0.122,-0.488,0.02197,1.01171,0.02050,28.83
$IMU,26888.707,1.403,-0.061,-0.427,0.01806,1.01123,0.02246,28.83
$IMU,26888.709,1.342,0.000,-0.366,0.01953,1.00976,0.02148,28.83
$MAG,26888.710,-0.558,-0.522,-0.406,27.8
$IMU,26888.711,1.342,-0.122,-0.427,0.01708,1.01171,0.01855,28.83
$IMU,26888.714,1.281,-0.061,-0.305,0.01806,1.01171,0.02001,28.83
$IMU,26888.716,1.159,0.000,-0.366,0.02099,1.01660,0.01904,28.83
$IMU,26888.718,1.098,0.061,-0.305,0.01904,1.01806,0.02148,28.83
$BARO,26888.720,86865.38,28.74
$MAG,26888.720,-0.562,-0.519,-0.409,27.6
$IMU,26888.721,1.037,0.000,-0.366,0.01562,1.01367,0.01855,28.76
$IMU,26888.723,0.793,0.061,-0.366,0.02246,1.01416,0.01757,28.76
$IMU,26888.725,0.732,-0.061,-0.305,0.02099,1.01855,0.01904,28.76
$IMU,26888.728,0.549,-0.061,-0.366,0.01806,1.02050,0.01953,28.76
$MAG,26888.730,-0.555,-0.511,-0.403,27.7
$IMU,26888.730,0.488,0.000,-0.366,0.01904,1.01855,0.01611,28.76
$IMU,26888.732,0.366,0.061,-0.427,0.02148,1.02148,0.01416,28.76
$IMU,26888.735,0.305,0.000,-0.427,0.02050,1.01953,0.01855,28.76
$IMU,26888.737,0.366,-0.061,-0.366,0.01904,1.01904,0.01904,28.76
$MAG,26888.740,-0.559,-0.516,-0.399,27.7
$IMU,26888.740,0.427,-0.122,-0.366,0.02001,1.01660,0.01806,28.80
$IMU,26888.742,0.305,-0.183,-0.366,0.01611,1.02001,0.02050,28.80
$IMU,26888.744,0.305,-0.061,-0.366,0.01757,1.02001,0.01904,28.80
$IMU,26888.747,0.244,0.061,-0.427,0.01953,1.01904,0.01904,28.80
$IMU,26888.749,0.366,-0.122,-0.366,0.01904,1.02001,0.02050,28.80
$MAG,26888.750,-0.571,-0.516,-0.400,27.7
$IMU,26888.751,0.427,-0.122,-0.366,0.02001,1.01708,0.02099,28.80
$IMU,26888.754,0.427,-0.183,-0.305,0.01904,1.01367,0.02050,28.80
$IMU,26888.756,0.427,-0.122,-0.305,0.01708,1.01416,0.02246,28.80
$IMU,26888.758,0.427,0.000,-0.366,0.02197,1.01562,0.02050,28.83
$MAG,26888.760,-0.561,-0.522,-0.403,27.7
$IMU,26888.761,0.427,-0.061,-0.305,0.01757,1.01074,0.02197,28.83
$IMU,26888.763,0.488,-0.183,-0.427,0.01757,1.01025,0.02050,28.83
$IMU,26888.765,0.488,-0.183,-0.488,0.01269,1.01513,0.02246,28.83
$IMU,26888.768,0.488,0.000,-0.427,0.01611,1.01269,0.02392,28.83
$MAG,26888.770,-0.561,-0.517,-0.408,27.7
$IMU,26888.770,0.549,0.000,-0.427,0.01464,1.01171,0.02294,28.83
$IMU,26888.772,0.549,0.061,-0.366,0.01757,1.01123,0.02343,28.83
$IMU,26888.775,0.610,0.061,-0.305,0.01660,1.01123,0.02294,28.83
$IMU,26888.777,0.732,-0.122,-0.305,0.01367,1.01025,0.02343,28.80
$IMU,26888.779,0.793,-0.183,-0.305,0.01464,1.01611,0.02490,28.80
$MAG,26888.780,-0.567,-0.511,-0.405,27.7
$IMU,26888.782,0.732,0.061,-0.305,0.01416,1.01416,0.02197,28.80
$IMU,26888.784,0.793,0.061,-0.305,0.01806,1.01025,0.02246,28.80
$IMU,26888.786,0.915,-0.061,-0.427,0.01708,1.01611,0.02099,28.80
$IMU,26888.789,1.037,-0.122,-0.366,0.01904,1.01806,0.02539,28.80
$MAG,26888.790,-0.570,-0.514,-0.399,27.7
$IMU,26888.791,1.159,-0.061,-0.427,0.01757,1.01660,0.02197,28.80
$IMU,26888.793,1.159,-0.061,-0.488,0.01611,1.01611,0.02343,28.80
$IMU,26888.796,1.098,0.061,-0.366,0.01611,1.01660,0.02441,28.79
$IMU,26888.798,1.098,0.061,-0.366,0.01757,1.01708,0.02392,28.79
$IMU,26888.800,1.281,-0.122,-0.366,0.01806,1.01660,0.02441,28.79
$MAG,26888.801,-0.558,-0.526,-0.403,27.7
$IMU,26888.803,1.281,-0.122,-0.305,0.01611,1.01611,0.02246,28.79
$IMU,26888.805,1.342,-0.122,-0.305,0.01757,1.02001,0.02343,28.79
$IMU,26888.808,1.220,-0.061,-0.305,0.01660,1.01611,0.02294,28.79
$IMU,26888.810,1.220,0.000,-0.366,0.01806,1.01464,0.02197,28.79
$MAG,26888.811,-0.559,-0.517,-0.402,27.7
$IMU,26888.812,1.281,0.000,-0.305,0.01660,1.01513,0.02001,28.79
$IMU,26888.815,1.159,0.000,-0.366,0.01953,1.01611,0.01953,28.79
$IMU,26888.817,1.159,-0.061,-0.366,0.01708,1.01611,0.02343,28.79
$IMU,26888.819,1.159,-0.122,-0.244,0.02099,1.01513,0.02197,28.79
$BARO,26888.821,86863.23,28.74
$MAG,26888.821,-0.562,-0.517,-0.394,27.7
$IMU,26888.822,1.037,0.122,-0.366,0.01904,1.01562,0.02099,28.79
$IMU,26888.824,0.976,0.183,-0.366,0.02246,1.01367,0.02197,28.79
$IMU,26888.826,1.098,0.061,-0.366,0.01953,1.01464,0.02050,28.79
$IMU,26888.829,1.220,-0.061,-0.366,0.01806,1.01660,0.02197,28.79
$MAG,26888.831,-0.559,-0.516,-0.400,27.8
$IMU,26888.831,1.342,-0.183,-0.305,0.01855,1.01757,0.02050,28.79
$IMU,26888.833,1.403,0.000,-0.366,0.01855,1.01757,0.02001,28.77
$IMU,26888.836,1.525,0.183,-0.305,0.02246,1.01513,0.01855,28.77
$IMU,26888.838,1.647,-0.061,-0.305,0.01855,1.01220,0.02001,28.77
$IMU,26888.840,1.770,0.061,-0.305,0.02343,1.01318,0.02001,28.77
$MAG,26888.841,-0.573,-0.523,-0.402,28.1
$IMU,26888.843,1.953,0.061,-0.366,0.02050,1.01660,0.01855,28.77
$IMU,26888.845,2.075,-0.122,-0.366,0.01855,1.01513,0.01757,28.77
$IMU,26888.847,2.136,0.061,-0.427,0.02099,1.01416,0.01611,28.77
$IMU,26888.850,2.197,0.061,-0.549,0.01953,1.01562,0.01611,28.77
$MAG,26888.851,-0.571,-0.519,-0.409,27.7
$IMU,26888.852,2.258,-0.061,-0.488,0.02197,1.01464,0.01660,28.78
$IMU,26888.854,2.319,-0.122,-0.488,0.01855,1.01611,0.01806,28.78
$IMU,26888.857,2.319,-0.122,-0.549,0.01806,1.01611,0.01416,28.78
$IMU,26888.859,2.380,-0.183,-0.549,0.01562,1.01123,0.01855,28.78
$MAG,26888.861,-0.571,-0.517,-0.400,27.7
$IMU,26888.861,2.380,0.000,-0.488,0.01757,1.01513,0.01269,28.78
$IMU,26888.864,2.441,-0.122,-0.366,0.01953,1.01367,0.01562,28.78
$IMU,26888.866,2.258,-0.183,-0.305,0.01904,1.01123,0.01416,28.78
$IMU,26888.869,2.197,-0.061,-0.305,0.01953,1.01367,0.01220,28.78
$HUM,26888.870,35.1,29.2
$MAG,26888.871,-0.564,-0.517,-0.397,27.6
$IMU,26888.871,2.136,-0.061,-0.427,0.01660,1.01318,0.01269,28.81
$IMU,26888.873,2.075,-0.061,-0.488,0.01806,1.01464,0.01367,28.81
$IMU,26888.876,1.831,0.122,-0.549,0.01757,1.01318,0.01416,28.81
$IMU,26888.878,1.770,0.000,-0.488,0.01806,1.01269,0.01367,28.81
$IMU,26888.880,1.708,-0.061,-0.549,0.01904,1.01123,0.00927,28.81
$MAG,26888.881,-0.561,-0.522,-0.409,27.7
$IMU,26888.883,1.647,-0.122,-0.427,0.02001,1.01318,0.00976,28.81
$IMU,26888.885,1.281,0.061,-0.305,0.01855,1.01269,0.01318,28.81
$IMU,26888.887,1.159,0.061,-0.305,0.01660,1.01269,0.00976,28.81
$IMU,26888.890,0.915,-0.061,-0.305,0.01660,1.01318,0.00976,28.81
$MAG,26888.891,-0.565,-0.511,-0.408,27.7
$IMU,26888.892,0.793,-0.061,-0.305,0.01904,1.01611,0.01269,28.81
$IMU,26888.894,0.732,-0.122,-0.305,0.02001,1.01318,0.01513,28.81
$IMU,26888.897,0.427,0.122,-0.366,0.01757,1.01416,0.01611,28.81
$IMU,26888.899,0.366,0.061,-0.427,0.01855,1.01269,0.01269,28.81
$MAG,26888.901,-0.570,-0.513,-0.403,27.7
$IMU,26888.901,0.122,0.000,-0.366,0.02148,1.00976,0.01220,28.81
$IMU,26888.904,0.061,-0.061,-0.427,0.01708,1.01074,0.01464,28.81
$IMU,26888.906,0.000,-0.061,-0.305,0.01757,1.01025,0.01513,28.81
$IMU,26888.908,-0.061,0.061,-0.244,0.02001,1.01171,0.01513,28.78
$IMU,26888.911,-0.183,-0.061,-0.244,0.01708,1.00781,0.01464,28.78
$MAG,26888.912,-0.562,-0.514,-0.405,27.8
$IMU,26888.913,-0.183,0.000,-0.183,0.01660,1.01074,0.01416,28.78
$IMU,26888.915,-0.183,-0.122,-0.183,0.01464,1.01074,0.01513,28.78
$IMU,26888.918,-0.183,-0.122,-0.305,0.01806,1.01416,0.01757,28.78
$IMU,26888.920,-0.122,0.000,-0.244,0.02099,1.01171,0.02050,28.78
$MAG,26888.922,-0.558,-0.520,-0.400,27.6
$IMU,26888.922,-0.122,-0.122,-0.305,0.02197,1.01416,0.01806,28.78
$BARO,26888.923,86864.70,28.73
$IMU,26888.925,-0.122,-0.061,-0.244,0.01757,1.01464,0.01904,28.78
$IMU,26888.927,0.000,-0.061,-0.244,0.01806,1.01220,0.01855,28.79
$IMU,26888.930,0.122,-0.061,-0.244,0.01806,1.01611,0.02001,28.79
$MAG,26888.932,-0.561,-0.513,-0.406,27.7
$IMU,26888.932,0.244,-0.122,-0.244,0.01806,1.01611,0.02246,28.79
$IMU,26888.934,0.427,-0.061,-0.305,0.01904,1.01562,0.01904,28.79
$IMU,26888.937,0.549,0.061,-0.305,0.02148,1.01806,0.01806,28.79
$IMU,26888.939,0.610,-0.061,-0.305,0.02246,1.01855,0.01904,28.79
$IMU,26888.941,0.732,-0.122,-0.366,0.01904,1.01220,0.02148,28.79
$MAG,26888.942,-0.564,-0.531,-0.402,27.7
$IMU,26888.944,0.793,0.000,-0.366,0.01855,1.01220,0.01904,28.79
$IMU,26888.946,0.976,-0.183,-0.305,0.02001,1.01318,0.01855,28.79
$IMU,26888.948,1.037,0.061,-0.305,0.02050,1.01171,0.01904,28.79
$IMU,26888.951,1.220,0.061,-0.305,0.02392,1.00927,0.01708,28.79
$MAG,26888.952,-0.559,-0.517,-0.403,27.6
$IMU,26888.953,1.525,-0.183,-0.305,0.02197,1.00634,0.01660,28.79
$IMU,26888.955,1.647,-0.122,-0.427,0.01757,1.00390,0.01708,28.79
$IMU,26888.958,1.770,-0.061,-0.427,0.02050,1.00488,0.01611,28.79
$IMU,26888.960,1.953,-0.061,-0.427,0.01806,1.00488,0.01562,28.79
$MAG,26888.962,-0.561,-0.516,-0.402,27.6
$IMU,26888.962,2.075,0.061,-0.488,0.01269,1.00390,0.01806,28.79
$IMU,26888.965,2.258,-0.061,-0.366,0.01708,1.00195,0.01318,28.80
$IMU,26888.967,2.502,-0.122,-0.366,0.01562,1.00439,0.01416,28.80
$IMU,26888.969,2.563,-0.122,-0.244,0.01855,1.00146,0.01269,28.80
$MAG,26888.972,-0.558,-0.525,-0.399,27.7
$IMU,26888.972,2.502,-0.122,-0.183,0.01513,1.00146,0.01367,28.80
$IMU,26888.974,2.502,-0.183,0.000,0.01660,1.00097,0.01074,28.80
$IMU,26888.976,2.319,-0.061,-0.122,0.01708,1.00585,0.01025,28.80
$IMU,26888.979,2.136,-0.061,-0.061,0.02197,1.00732,0.01171,28.80
$IMU,26888.981,1.953,-0.122,-0.122,0.02099,1.00683,0.00927,28.80
$MAG,26888.982,-0.561,-0.517,-0.402,27.8
$IMU,26888.983,1.647,-0.183,-0.061,0.01953,1.00683,0.00878,28.81
$IMU,26888.986,1.220,-0.061,-0.122,0.01513,1.01123,0.00830,28.81
$IMU,26888.988,0.732,-0.061,-0.061,0.01953,1.01611,0.00976,28.81
$IMU,26888.991,0.244,-0.061,-0.122,0.02246,1.01611,0.00830,28.81
$MAG,26888.992,-0.564,-0.526,-0.405,27.7
$IMU,26888.993,-0.366,0.061,-0.122,0.02294,1.01708,0.00830,28.81
$IMU,26888.995,-0.915,0.000,-0.122,0.02392,1.01660,0.00732,28.81
$IMU,26888.998,-1.342,0.000,-0.061,0.02587,1.02050,0.00976,28.81
$IMU,26889.000,-1.770,0.000,-0.061,0.02343,1.02294,0.01123,28.81
$MAG,26889.002,-0.567,-0.516,-0.399,27.8
$IMU,26889.002,-2.136,0.061,-0.122,0.02001,1.01855,0.01171,28.78
$IMU,26889.005,-2.441,0.000,-0.183,0.02343,1.01855,0.01318,28.78
$IMU,26889.007,-2.563,-0.183,-0.122,0.02050,1.01660,0.01367,28.78
$IMU,26889.009,-2.563,-0.061,-0.244,0.02294,1.01757,0.01562,28.78
$IMU,26889.012,-2.563,-0.061,-0.183,0.02050,1.01513,0.01708,28.78
$MAG,26889.013,-0.562,-0.511,-0.402,27.8
$IMU,26889.014,-2.502,-0.061,-0.183,0.01562,1.01318,0.01757,28.78
$IMU,26889.016,-2.441,0.000,-0.183,0.02001,1.01123,0.02001,28.78
$IMU,26889.019,-2.258,-0.061,-0.061,0.01904,1.00830,0.02148,28.78
$IMU,26889.021,-1.831,-0.183,-0.061,0.01855,1.00585,0.02148,28.77
$MAG,26889.023,-0.559,-0.522,-0.403,27.8
$IMU,26889.023,-1.464,-0.244,-0.122,0.01953,1.00488,0.02050,28.77
$BARO,26889.024,86867.86,28.74
$IMU,26889.026,-1.159,-0.122,-0.122,0.01904,1.00341,0.02099,28.77
$IMU,26889.028,-0.732,-0.183,-0.183,0.01806,1.00146,0.01904,28.77
$IMU,26889.030,-0.366,-0.183,-0.244,0.01611,1.00195,0.02246,28.77
$MAG,26889.033,-0.565,-0.520,-0.408,27.6
$IMU,26889.033,0.000,0.000,-0.183,0.01660,1.00146,0.02441,28.77
$IMU,26889.035,0.427,-0.122,-0.183,0.01855,1.00292,0.02197,28.77
$IMU,26889.037,0.793,-0.122,-0.122,0.01660,1.00048,0.02001,28.77
$IMU,26889.040,1.159,0.000,-0.183,0.01562,1.00195,0.02099,28.78
$IMU,26889.042,1.647,-0.183,-0.305,0.01562,1.00537,0.01855,28.78
$MAG,26889.043,-0.562,-0.523,-0.399,27.8
$IMU,26889.044,2.075,-0.061,-0.366,0.01855,1.00488,0.01660,28.78
$IMU,26889.047,2.319,0.000,-0.427,0.01904,1.00537,0.01904,28.78
$IMU,26889.049,2.502,-0.122,-0.427,0.01953,1.00781,0.01660,28.78
$IMU,26889.052,2.746,-0.183,-0.366,0.01953,1.01025,0.01708,28.78
$MAG,26889.053,-0.567,-0.523,-0.402,27.8
$IMU,26889.054,2.990,-0.183,-0.366,0.01660,1.01318,0.01562,28.78
$IMU,26889.056,3.112,-0.183,-0.305,0.01708,1.01367,0.01416,28.78
$IMU,26889.059,3.051,0.122,-0.366,0.01806,1.01513,0.01318,28.80
$IMU,26889.061,2.990,0.122,-0.305,0.02050,1.01757,0.01025,28.80
$MAG,26889.063,-0.559,-0.525,-0.397,27.7
$IMU,26889.063,3.051,-0.244,-0.366,0.02197,1.01806,0.01025,28.80
$IMU,26889.066,2.990,-0.244,-0.305,0.01904,1.01904,0.00878,28.80
$IMU,26889.068,2.685,-0.122,-0.366,0.02050,1.01904,0.00683,28.80
$IMU,26889.070,2.319,-0.061,-0.305,0.02001,1.02050,0.00146,28.80
$MAG,26889.073,-0.561,-0.522,-0.402,27.6
$IMU,26889.073,1.953,-0.061,-0.366,0.01904,1.02197,0.00341,28.80
$IMU,26889.075,1.647,-0.183,-0.244,0.02099,1.01904,0.00195,28.80
$IMU,26889.077,1.098,0.000,-0.183,0.01855,1.01757,0.00244,28.81
$IMU,26889.080,0.610,-0.122,-0.244,0.01855,1.01953,0.00292,28.81
$IMU,26889.082,0.122,-0.061,-0.244,0.01708,1.01220,0.00146,28.81
$MAG,26889.083,-0.565,-0.514,-0.400,27.7
$IMU,26889.084,-0.427,-0.061,-0.183,0.01904,1.01171,0.00585,28.81
$IMU,26889.087,-0.854,-0.183,-0.183,0.01708,1.01074,0.00439,28.81
$IMU,26889.089,-1.159,-0.061,-0.244,0.01611,1.00488,0.00683,28.81
$IMU,26889.091,-1.586,-0.061,-0.244,0.01660,1.00439,0.00488,28.81
$MAG,26889.093,-0.561,-0.522,-0.400,27.7
$IMU,26889.094,-2.014,-0.061,-0.244,0.01757,1.00390,0.00683,28.81
$IMU,26889.096,-2.136,-0.183,-0.122,0.01513,1.00488,0.00927,28.81
$IMU,26889.098,-2.380,0.000,0.000,0.01611,1.00634,0.00927,28.81
$IMU,26889.101,-2.624,0.000,0.000,0.01757,1.00390,0.01171,28.81
$MAG,26889.103,-0.565,-0.519,-0.403,27.7
$IMU,26889.103,-2.807,0.061,0.061,0.01757,1.00537,0.01318,28.81
$IMU,26889.105,-2.807,0.061,0.122,0.01513,1.00683,0.01416,28.81
$IMU,26889.108,-2.807,-0.061,0.122,0.01708,1.00537,0.01562,28.81
$IMU,26889.110,-2.746,0.061,0.122,0.02001,1.00683,0.01660,28.81
$IMU,26889.113,-2.624,0.000,0.061,0.01904,1.00488,0.01562,28.81
$MAG,26889.113,-0.565,-0.522,-0.400,27.6
$IMU,26889.115,-2.441,-0.061,0.061,0.01806,1.00878,0.01562,28.85
$IMU,26889.117,-2.197,-0.244,0.061,0.02001,1.00927,0.01855,28.85
$IMU,26889.120,-2.014,0.000,0.061,0.01806,1.01074,0.01904,28.85
$IMU,26889.122,-1.708,-0.122,0.061,0.02099,1.01123,0.02050,28.85
$MAG,26889.124,-0.565,-0.520,-0.403,27.8
$IMU,26889.124,-1.403,-0.183,-0.061,0.02294,1.01416,0.02099,28.85
$BARO,26889.126,86861.45,28.73
$IMU,26889.127,-1.342,0.122,-0.061,0.02050,1.01367,0.02148,28.85
$IMU,26889.129,-0.915,-0.061,-0.122,0.02148,1.01660,0.02148,28.85
$IMU,26889.131,-0.610,-0.061,-0.244,0.02148,1.01513,0.02197,28.85
$MAG,26889.134,-0.558,-0.519,-0.396,27.7
$IMU,26889.134,-0.244,-0.061,-0.244,0.02148,1.01513,0.01904,28.75
$IMU,26889.136,0.061,-0.061,-0.244,0.01953,1.01220,0.01806,28.75
$IMU,26889.138,0.366,-0.122,-0.305,0.01904,1.01513,0.02294,28.75
$IMU,26889.141,0.610,0.000,-0.366,0.02099,1.01464,0.02148,28.75
$IMU,26889.143,0.854,0.122,-0.427,0.01904,1.01562,0.02148,28.75
$MAG,26889.144,-0.561,-0.526,-0.400,27.7
$IMU,26889.145,1.159,-0.183,-0.427,0.01757,1.01611,0.02050,28.75
$IMU,26889.148,1.464,-0.244,-0.427,0.02001,1.01220,0.01806,28.75
$IMU,26889.150,1.586,-0.061,-0.366,0.01806,1.00781,0.01806,28.75
$IMU,26889.152,1.770,-0.061,-0.427,0.01660,1.01416,0.01660,28.83
$MAG,26889.154,-0.568,-0.522,-0.405,27.7
$IMU,26889.155,1.831,0.000,-0.305,0.02001,1.00976,0.01660,28.83
$IMU,26889.157,1.953,0.000,-0.366,0.02148,1.00976,0.01757,28.83
$IMU,26889.159,2.075,-0.061,-0.305,0.01708,1.00976,0.01464,28.83
$IMU,26889.162,2.136,-0.183,-0.305,0.01464,1.00927,0.01171,28.83
$MAG,26889.164,-0.564,-0.519,-0.403,27.7
$IMU,26889.164,2.075,-0.122,-0.366,0.01757,1.01123,0.01220,28.83
$IMU,26889.166,1.953,0.000,-0.366,0.01904,1.00585,0.01074,28.83
$IMU,26889.169,1.831,-0.122,-0.305,0.01611,1.00683,0.01318,28.83
$IMU,26889.171,1.647,0.000,-0.244,0.01611,1.01171,0.00830,28.82
$MAG,26889.174,-0.562,-0.522,-0.408,28.1
$IMU,26889.174,1.525,-0.122,-0.183,0.01562,1.00781,0.00585,28.82
$IMU,26889.176,1.220,-0.183,-0.122,0.01660,1.00927,0.00781,28.82
$IMU,26889.178,0.915,-0.122,-0.061,0.01953,1.00927,0.00830,28.82
$IMU,26889.181,0.610,-0.061,0.000,0.01708,1.00830,0.00683,28.82
$IMU,26889.183,0.305,-0.122,-0.061,0.01757,1.01220,0.00634,28.82
$MAG,26889.184,-0.568,-0.519,-0.411,27.8
$IMU,26889.185,0.061,-0.122,-0.183,0.02099,1.00976,0.00537,28.82
$IMU,26889.188,-0.305,-0.122,-0.122,0.01660,1.01416,0.00341,28.82
$IMU,26889.190,-0.671,0.000,-0.122,0.01953,1.01220,0.00683,28.81
$IMU,26889.192,-0.976,0.061,-0.122,0.02099,1.01220,0.00781,28.81
$MAG,26889.194,-0.570,-0.513,-0.400,27.7
$IMU,26889.195,-1.220,-0.061,0.000,0.01708,1.01367,0.00585,28.81
$IMU,26889.197,-1.342,-0.183,0.000,0.01611,1.01367,0.01025,28.81
$IMU,26889.199,-1.586,-0.122,0.000,0.02001,1.01611,0.01025,28.81
$IMU,26889.202,-1.831,0.061,-0.061,0.01904,1.01611,0.00976,28.81
$MAG,26889.204,-0.559,-0.516,-0.397,28.0
$IMU,26889.204,-1.953,0.000,-0.061,0.02050,1.01611,0.01123,28.81
$IMU,26889.206,-2.075,0.061,-0.061,0.01855,1.01708,0.01220,28.81
$IMU,26889.209,-2.014,-0.122,-0.122,0.02001,1.01562,0.01171,28.82
$IMU,26889.211,-1.953,-0.122,-0.183,0.02001,1.01416,0.01416,28.82
$IMU,26889.213,-1.892,-0.061,-0.183,0.02099,1.01464,0.01318,28.82
$MAG,26889.214,-0.565,-0.520,-0.406,27.7
$IMU,26889.216,-1.953,-0.061,-0.122,0.01562,1.01367,0.01660,28.82
$IMU,26889.218,-1.892,0.061,-0.061,0.02001,1.01367,0.01708,28.82
$IMU,26889.220,-1.770,0.000,-0.122,0.01855,1.01074,0.01708,28.82
$IMU,26889.223,-1.586,-0.122,-0.122,0.01806,1.00683,0.01855,28.82
$MAG,26889.224,-0.568,-0.520,-0.411,28.0
$IMU,26889.225,-1.342,-0.244,-0.122,0.01708,1.01318,0.01904,28.82
$BARO,26889.227,86865.89,28.73
$IMU,26889.227,-1.220,-0.061,-0.122,0.01855,1.00781,0.01855,28.83
$IMU,26889.230,-1.037,0.000,-0.183,0.01562,1.01074,0.01708,28.83
$IMU,26889.232,-0.854,0.122,-0.244,0.01904,1.01123,0.01562,28.83
$IMU,26889.234,-0.549,-0.061,-0.305,0.01660,1.01074,0.01806,28.83
$MAG,26889.235,-0.568,-0.513,-0.393,27.7
$IMU,26889.237,-0.244,-0.122,-0.244,0.01757,1.00927,0.01806,28.83
$IMU,26889.239,0.000,-0.122,-0.183,0.01513,1.00781,0.02001,28.83
$IMU,26889.242,0.244,0.000,-0.244,0.01708,1.00976,0.01660,28.83
$IMU,26889.244,0.427,-0.061,-0.244,0.01757,1.00976,0.01464,28.83
$MAG,26889.245,-0.568,-0.523,-0.399,27.7
$IMU,26889.246,0.610,0.000,-0.183,0.01513,1.01074,0.01660,28.80
$IMU,26889.249,0.854,-0.122,-0.183,0.01904,1.01123,0.01708,28.80
$IMU,26889.251,0.915,-0.061,-0.183,0.01806,1.01074,0.02050,28.80
$IMU,26889.253,1.037,-0.061,-0.244,0.01660,1.01318,0.01416,28.80
$MAG,26889.255,-0.559,-0.525,-0.405,27.7
$IMU,26889.256,1.159,-0.122,-0.305,0.01953,1.01171,0.01611,28.80
$IMU,26889.258,1.342,-0.061,-0.366,0.01660,1.01660,0.01318,28.80
$IMU,26889.260,1.342,0.000,-0.305,0.01757,1.01464,0.01562,28.80
$IMU,26889.263,1.403,-0.122,-0.305,0.02099,1.01708,0.01416,28.80
$MAG,26889.265,-0.568,-0.513,-0.397,27.7
$IMU,26889.265,1.342,-0.122,-0.244,0.01953,1.02001,0.01269,28.79
$IMU,26889.267,1.281,-0.122,-0.183,0.01904,1.01757,0.01416,28.79
$IMU,26889.270,1.159,0.000,-0.183,0.01953,1.01513,0.01123,28.79
$IMU,26889.272,0.976,-0.122,-0.183,0.02001,1.01806,0.01025,28.79
$IMU,26889.274,0.915,-0.122,-0.183,0.02099,1.01562,0.01074,28.79
$MAG,26889.275,-0.568,-0.516,-0.394,27.7
$IMU,26889.277,0.732,-0.183,-0.122,0.02001,1.01806,0.00927,28.79
$IMU,26889.279,0.488,-0.366,-0.183,0.01855,1.01513,0.00830,28.79
$IMU,26889.281,0.244,-0.244,-0.244,0.01953,1.01562,0.00927,28.79
$IMU,26889.284,0.000,-0.061,-0.183,0.02050,1.01367,0.00781,28.77
$MAG,26889.285,-0.561,-0.511,-0.403,27.8
$IMU,26889.286,-0.427,0.061,-0.244,0.01953,1.01220,0.00927,28.77
$IMU,26889.288,-0.610,0.244,-0.122,0.01855,1.01123,0.00927,28.77
$IMU,26889.291,-0.671,-0.061,-0.183,0.01904,1.01416,0.00878,28.77
$IMU,26889.293,-0.915,-0.061,-0.122,0.01562,1.01367,0.01220,28.77
$MAG,26889.295,-0.564,-0.513,-0.394,27.6
$IMU,26889.295,-1.037,0.000,-0.122,0.01757,1.01318,0.01269,28.77
$IMU,26889.298,-1.037,-0.061,-0.122,0.01660,1.00830,0.01074,28.77
$IMU,26889.300,-1.159,-0.122,-0.122,0.01562,1.01269,0.01123,28.77
$IMU,26889.303,-1.220,0.000,-0.183,0.01708,1.01025,0.01220,28.82
$MAG,26889.305,-0.559,-0.520,-0.402,27.6
$IMU,26889.305,-1.342,0.000,-0.122,0.01806,1.00781,0.01220,28.82
$IMU,26889.307,-1.342,0.000,0.000,0.01757,1.00976,0.01464,28.82
$IMU,26889.310,-1.220,-0.122,0.000,0.01708,1.01025,0.01123,28.82
$IMU,26889.312,-1.220,0.000,-0.061,0.01855,1.00927,0.01855,28.82
$IMU,26889.314,-1.098,0.000,-0.122,0.01757,1.01074,0.01464,28.82
$MAG,26889.315,-0.564,-0.514,-0.405,27.6
$IMU,26889.317,-1.098,-0.061,-0.183,0.01904,1.01318,0.01269,28.82
$IMU,26889.319,-0.976,0.061,-0.183,0.02050,1.01123,0.01562,28.82
$IMU,26889.321,-0.854,0.061,-0.183,0.01806,1.01269,0.01318,28.79
$IMU,26889.324,-0.732,-0.183,-0.244,0.01660,1.01416,0.01611,28.79
$MAG,26889.325,-0.567,-0.520,-0.405,27.6
$IMU,26889.326,-0.732,0.000,-0.244,0.01757,1.01123,0.01660,28.79
$BARO,26889.328,86865.50,28.73
$IMU,26889.328,-0.610,-0.061,-0.183,0.01660,1.01513,0.01513,28.79
$IMU,26889.331,-0.427,-0.061,-0.183,0.01953,1.01562,0.01660,28.79
$IMU,26889.333,-0.183,-0.061,-0.122,0.01708,1.01464,0.01611,28.79
$MAG,26889.335,-0.565,-0.517,-0.402,27.8
$IMU,26889.335,-0.244,0.061,-0.244,0.01953,1.01367,0.01855,28.79
$IMU,26889.338,-0.244,-0.061,-0.244,0.01953,1.01123,0.01708,28.79
$IMU,26889.340,-0.061,-0.183,-0.305,0.02099,1.01611,0.01318,28.80
$IMU,26889.342,0.000,-0.061,-0.305,0.01806,1.01708,0.01708,28.80
$IMU,26889.345,0.183,-0.183,-0.305,0.01904,1.01513,0.01464,28.80
$MAG,26889.346,-0.561,-0.519,-0.406,27.8
$IMU,26889.347,0.244,0.000,-0.244,0.01611,1.01367,0.01513,28.80
$IMU,26889.349,0.549,-0.366,-0.183,0.01757,1.01904,0.01513,28.80
$IMU,26889.352,0.366,0.000,-0.244,0.01855,1.01269,0.01269,28.80
